Folder: spectrumdavit/data/xrd_icdd_PDF (part 18)

File: 00-071-0803 (PD3).csv
5.0332,8643
5.3932,8817
5.7532,8740
6.1132,8881
6.4732,8983
6.8332,8901
7.1932,8709
7.5532,8849
7.9132,8726
8.2732,8799
8.6332,8627
8.9932,8646
9.3532,8615
9.7132,8201
10.0732,8457
10.4332,8310
10.7932,8193
11.1532,8134
11.5132,8418
11.8732,8283
12.2332,8266
12.5932,8422
12.9532,8284
13.3132,8168
13.6732,8144
14.0332,8151
14.3932,8631
14.7532,8144
15.1132,8198
15.4732,8131
15.8332,8277
16.1932,8117
16.5532,8218
16.9132,8362
17.2732,8643
17.6332,9029
17.9932,9163
18.3532,8894
18.7132,8775
19.0732,8931
19.4332,9087
19.7932,9282
20.1532,9370
20.5132,9370
20.8732,9962
21.2332,10352
21.5932,9724
21.9532,10104
22.3132,11643
22.6732,10268
23.0332,10341
23.3932,10980
23.7532,10455
24.1132,10432
24.4732,10057
24.8332,10323
25.1932,10047
25.5532,10175
25.9132,9727
26.2732,9727
26.6332,9648
26.9932,9827
27.3532,9478
27.7132,9648
28.0732,9646
28.4332,9525
28.7932,11454
29.1532,14230
29.5132,9632
29.8732,9143
30.2332,9076
30.5932,11731
30.9532,8828
31.3132,8346
31.6732,8346
32.0332,8105
32.3932,7858
32.7532,7605
33.1132,7470
33.4732,7250
33.8332,6983
34.1932,7021
34.5532,8252
34.9132,6927
35.2732,6799
35.6332,9212
35.9932,7065
36.3532,6132
36.7132,8386
37.0732,6178
37.4332,5756
37.7932,6021
38.1532,5505
38.5132,5637
38.8732,5653
39.2332,5526
39.5932,5502
39.9532,5200
40.3132,5361
40.6732,5306
41.0332,5447
41.3932,5322
41.7532,5459
42.1132,5514
42.4732,5565
42.8332,5496
43.1932,7342
43.5532,5496
43.9132,5207
44.2732,5571
44.6332,5229
44.9932,5268
45.3532,5156
45.7132,5013
46.0732,5075
46.4332,5223
46.7932,5586
47.1532,5014
47.5132,6470
47.8732,5358
48.2332,6174
48.5932,6256
48.9532,5102
49.3132,4885
49.6732,5440
50.0332,4858
50.3932,4848
50.7532,4831
51.1132,4841
51.4732,4932
51.8332,4892
52.1932,4852
52.5532,4732
52.9132,5802
53.2732,4889
53.6332,4813
53.9932,4740
54.3532,4947
54.7132,4958
55.0732,5100
55.4332,4921
55.7932,4974
56.1532,5005
56.5132,5439
56.8732,5747
57.2332,5248
57.5932,5317
57.9532,5992
58.3132,5184
58.6732,5067
59.0332,4850
59.3932,4984
59.7532,4953
60.1132,4892
60.4732,4702
60.8332,4808
61.1932,5000
61.5532,5417
61.9132,4996
62.2732,4996
62.6332,5023
62.9932,4772
63.3532,4996
63.7132,4995
64.0732,5126
64.4332,4981
64.7932,5088
65.1532,5067
65.5132,5474
65.8732,5077
66.2332,5467
66.5932,5208
66.9532,4953
67.3132,4776
67.6732,5014
68.0332,4869
68.3932,4768
68.7532,4691
69.1132,4736
69.4732,5089
69.8332,5224
70.1932,4852
70.5532,5095
70.9132,4760
71.2732,4962
71.6332,4594
71.9932,4680
72.3532,4608
72.7132,4654
73.0732,4606
73.4332,4684
73.7932,4728
74.1532,4709
74.5132,4758
74.8732,4439
75.2332,4501
75.5932,4818
75.9532,4556
76.3132,4522
76.6732,4621
77.0332,4651
77.3932,4525
77.7532,4467
78.1132,4542
78.4732,4574
78.8332,4461
79.1932,4279
79.5532,4569
79.9132,4462
80.2732,4563
80.6332,4522
80.9932,4628
81.3532,4531
81.7132,4518
82.0732,4302
82.4332,4362
82.7932,4450
83.1532,4352
83.5132,4425
83.8732,4171
84.2332,4367
84.5932,4238
84.9532,4270
85.3132,4236
85.6732,4174
86.0332,4257
86.3932,4194
86.7532,4151
87.1132,4001
87.4732,4191
87.8332,4010
88.1932,4108
88.5532,4107
88.9132,4033
89.2732,4137
89.6332,4103
89.9932,4320
90.3532,3919
90.7132,4085
91.0732,4075
91.4332,4168
91.7932,4116
92.1532,3925
92.5132,3963
92.8732,4049
93.2332,3994
93.5932,4365
93.9532,4130
94.3132,3839
94.6732,4025
95.0332,3896
95.3932,4088
95.7532,4092
96.1132,4199
96.4732,4023
96.8332,4073
97.1932,3946
97.5532,3896
97.9132,3892
98.2732,3979
98.6332,4037
98.9932,4017
99.3532,3961
99.7132,4053
100.0732,3891
100.4332,3986
100.7932,4115
101.1532,4146
101.5132,4187
101.8732,4135
102.2332,4115
102.5932,4238
102.9532,4296
103.3132,4049
103.6732,4154
104.0332,4013
104.3932,4308
104.7532,3927
105.1132,4206
105.4732,4088
105.8332,4015
106.1932,3931
106.5532,4100
106.9132,4033
107.2732,4213
107.6332,4177
107.9932,4068
108.3532,4143
108.7132,4177
109.0132,4014

File: 00-072-0145 (PD3).csv
10,1208
10.44,1167
10.88,1162
11.32,1119
11.76,1195
12.2,1146
12.64,1169
13.08,1403
13.52,1091
13.96,1104
14.4,1013
14.84,1034
15.28,1012
15.72,1013
16.16,1069
16.6,1016
17.04,984
17.48,991
17.92,956
18.36,962
18.8,907
19.24,889
19.68,906
20.12,921
20.56,790
21,853
21.44,839
21.88,800
22.32,845
22.76,816
23.2,758
23.64,733
24.08,758
24.52,723
24.96,751
25.4,670
25.84,730
26.28,1424
26.72,751
27.16,646
27.6,647
28.04,693
28.48,834
28.92,1603
29.36,5637
29.8,913
30.24,735
30.68,1240
31.12,691
31.56,539
32,519
32.44,567
32.88,763
33.32,2977
33.76,1079
34.2,507
34.64,494
35.08,433
35.52,383
35.96,353
36.4,361
36.84,372
37.28,344
37.72,322
38.16,378
38.6,402
39.04,428
39.48,956
39.92,904
40.36,542
40.8,960
41.24,455
41.68,379
42.12,365
42.56,350
43,380
43.44,543
43.88,2585
44.32,496
44.76,346
45.2,337
45.64,318
46.08,313
46.52,292
46.96,312
47.4,296
47.84,326
48.28,293
48.72,298
49.16,319
49.6,316
50.04,375
50.48,452
50.92,1490
51.36,772
51.8,581
52.24,388
52.68,364
53.12,560
53.56,1472
54,1484
54.44,424
54.88,343
55.32,287
55.76,228
56.2,260
56.64,248
57.08,253
57.52,246
57.96,240
58.4,240
58.84,247
59.28,227
59.72,266
60.16,353
60.6,705
61.04,425
61.48,328
61.92,252
62.36,251
62.8,276
63.24,406
63.68,614
64.12,436
64.56,276
65,263
65.44,253
65.88,294
66.32,242
66.76,236
67.2,225
67.64,235
68.08,219
68.52,216
68.96,263
69.4,234
69.84,248
70.28,286
70.72,244
71.16,352
71.6,585
72.04,883
72.48,501
72.92,332
73.36,308
73.8,409
74.24,465
74.68,261
75.12,235
75.56,246
76,225
76.44,244
76.88,219
77.32,266
77.76,349
78.2,316
78.64,323
79.08,232
79.52,212
79.96,177
80.4,216
80.84,260
81.28,471
81.72,278
82.16,243
82.6,264
83.04,234
83.48,209
83.92,237
84.36,212
84.8,237
85.24,294
85.68,426
86.12,502
86.56,296
87,269
87.44,272
87.88,440
88.32,519
88.76,350
89.2,262
89.64,225
90.08,195
90.52,189
90.96,192
91.4,191
91.84,201
92.28,208
92.72,211
93.16,212
93.6,278
94.04,293
94.48,229
94.92,242
95.36,198
95.8,205
96.24,290
96.68,363
97.12,375
97.56,365
98,273
98.44,251
98.88,218
99.32,195
99.76,220
100.2,204
100.64,210
101.08,227
101.52,234
101.96,206
102.4,230
102.84,243
103.28,211
103.72,241
104.16,295
104.6,261
105.04,250
105.48,224
105.92,224
106.36,196
106.8,212
107.24,197
107.68,206
108.12,209
108.56,204
109,224
109.44,246
109.88,232
110.32,309
110.76,285
111.2,252
111.64,200
112.08,225
112.52,257
112.96,297
113.4,423
113.84,435
114.28,350
114.72,254
115.16,270
115.6,243
116.04,251
116.48,219
116.92,212
117.36,198
117.8,206
118.24,263
118.68,255
119.12,281
119.56,276
120,254
120.44,232
120.88,247
121.32,268
121.76,290
122.2,271
122.64,305
123.08,246
123.52,231
123.96,245
124.4,217
124.84,204
125.28,216
125.72,233
126.16,207
126.6,239
127.04,215
127.48,221
127.92,222
128.36,245
128.8,254
129.24,267
129.68,247
130.12,220
130.56,273
131,265
131.44,298
131.88,276
132.32,295
132.76,288
133.2,327
133.64,323
134.08,323
134.52,287
134.96,292
135.4,303
135.84,255
136.28,258
136.72,243
137.16,253
137.6,260
138.04,237
138.48,282
138.92,281
139.36,292
139.8,272
140,268

File: 00-073-0248 (PD3).csv
4.99911,0.00241
5.304,0.10504
5.60889,0.14247
5.91378,0.262
6.21867,0.30064
6.52356,0.43104
6.82845,0.45157
7.13334,0.58559
7.43823,0.66527
7.74312,0.7341
8.04801,0.81741
8.3529,0.92486
8.65779,0.87415
8.96268,1.03957
9.26757,1.04802
9.57246,1.09994
9.87735,1.10235
10.18224,1.04077
10.48713,1.07096
10.79202,0.99972
11.09691,1.08545
11.4018,1.05768
11.70669,1.06734
12.01158,1.14582
12.31647,1.12167
12.62136,1.07458
12.92625,1.13374
13.23114,1.11805
13.53603,1.08303
13.84092,1.15306
14.14581,1.05285
14.4507,1.09028
14.75559,1.04802
15.06048,1.0444
15.36537,1.11925
15.67026,1.04681
15.97515,0.99248
16.28004,1.03957
16.58493,1.04681
16.88982,0.93815
17.19471,0.95143
17.4996,1.03111
17.80449,1.01421
18.10938,0.94418
18.41427,0.98403
18.71916,0.96109
19.02405,0.89709
19.32894,0.9635
19.63383,0.90555
19.93872,0.92728
20.24361,0.77998
20.5485,0.92969
20.85339,0.90917
21.15828,0.90796
21.46317,0.84638
21.76806,0.89106
22.07295,0.90917
22.37784,0.91279
22.68273,0.88985
22.98762,0.86208
23.29251,0.8983
23.5974,0.95263
23.90229,0.85604
24.20718,1.08303
24.51207,0.85121
24.81696,0.78964
25.12185,0.88985
25.42674,0.84276
25.73163,0.82465
26.03652,0.77273
26.34141,0.79809
26.6463,0.8488
26.95119,0.79809
27.25608,0.82344
27.56097,1.03353
27.86586,0.88502
28.17075,0.84155
28.47564,0.77756
28.78053,0.7836
29.08542,0.82948
29.39031,0.78843
29.6952,0.87778
30.00009,0.75341
30.30498,0.84759
30.60987,0.84759
30.91476,0.84518
31.21965,0.83672
31.52454,0.90192
31.82943,0.87898
32.13432,0.90796
32.43921,0.8983
32.7441,0.90072
33.04899,1.31727
33.35387,0.97437
33.65876,0.97437
33.96365,0.99731
34.26854,1.03594
34.57343,1.1096
34.87832,1.2581
35.18321,12.35889
35.4881,1.67224
35.79299,1.34262
36.09788,1.4199
36.40277,1.13495
36.70766,1.14219
37.01255,1.22309
37.31744,1.13012
37.62233,1.18687
37.92722,2.43411
38.23211,1.13012
38.537,1.17117
38.84189,1.22309
39.14678,1.06854
39.45167,1.08183
39.75656,1.36315
40.06145,1.39213
40.36634,1.4211
40.67123,1.85576
40.97612,3.70549
41.28101,53.91498
41.5859,2.14192
41.89079,2.38702
42.19568,11.92785
42.50057,1.42955
42.80546,1.37522
43.11035,1.31123
43.41524,1.44284
43.72013,1.25207
44.02502,1.18445
44.32991,1.25448
44.6348,1.18566
44.93969,1.18325
45.24458,1.15427
45.54947,1.14702
45.85436,1.12771
46.15925,1.11442
46.46414,1.15306
46.76903,1.20136
47.07392,1.18083
47.37881,1.1434
47.6837,1.16151
47.98859,1.07096
48.29348,1.12408
48.59837,1.11805
48.90326,1.10477
49.20815,1.18325
49.51304,1.21343
49.81793,1.13495
50.12282,1.20136
50.42771,1.68794
50.7326,1.11322
51.03749,1.13616
51.34238,1.06371
51.64727,0.99006
51.95216,1.08786
52.25705,0.99369
52.56194,0.97316
52.86683,0.96592
53.17172,0.9961
53.47661,1.01783
53.7815,1.1591
54.08639,1.21705
54.39128,0.99731
54.69617,0.9792
55.00106,1.00455
55.30595,0.99489
55.61084,1.08545
55.91573,4.41423
56.22062,3.00762
56.52551,1.06492
56.8304,0.99369
57.13529,1.21102
57.44018,0.90313
57.74507,0.9309
58.04996,0.92607
58.35485,0.87536
58.65974,0.85966
58.96463,0.95022
59.26952,0.89468
59.57441,0.90434
59.8793,0.87898
60.18419,0.89951
60.48908,0.87778
60.79397,0.85725
61.09886,0.8814
61.40375,0.87536
61.70864,0.8657
62.01353,0.85363
62.31842,0.91038
62.62331,0.90072
62.9282,1.19894
63.23309,18.04571
63.53798,1.24362
63.84287,0.92366
64.14776,0.87295
64.45265,0.80654
64.75754,0.81741
65.06243,1.04681
65.36732,0.84276
65.67221,0.73168
65.9771,0.81016
66.28199,0.76428
66.58688,0.78239
66.89177,0.70874
67.19666,0.7679
67.50155,0.73772
67.80644,0.74979
68.11133,0.73893
68.41622,0.64596
68.72111,0.71961
69.026,0.73893
69.33089,0.75462
69.63578,0.67735
69.94067,0.70029
70.24556,0.71719
70.55045,0.84397
70.85534,0.67614
71.16023,0.61215
71.46512,0.60853
71.77001,0.62422
72.0749,0.66648
72.37979,0.63871
72.68468,0.63267
72.98957,0.58076
73.29446,0.66165
73.59935,0.57593
73.90424,0.56385
74.20913,0.60611
74.51402,1.6336
74.81891,0.64113
75.1238,0.66407
75.42869,0.60007
75.73358,0.64837
76.03847,0.83189
76.34336,4.3104
76.64825,0.91762
76.95314,0.59042
77.25803,0.57351
77.56292,0.56627
77.86781,0.64596
78.1727,1.48389
78.47759,2.87963
78.78248,2.35925
79.08737,3.74292
79.39226,0.5711
79.69715,0.50711
80.00204,0.46847
80.30693,0.46605
80.61182,0.42862
80.91671,0.42138
81.2216,0.3912
81.52649,0.41051
81.83138,0.36826
82.13627,0.38395
82.44116,0.34894
82.74605,0.34169
83.05094,0.33928
83.35583,0.32479
83.66072,0.2934
83.96561,0.28374
84.2705,0.33928
84.57539,0.262
84.88028,0.33566
85.18517,0.30185
85.49006,0.28495
85.79495,0.25114
86.09984,0.2451
86.40473,0.26442
86.70962,0.22337
87.01451,0.22337
87.3194,0.23061
87.62429,0.2282
87.92918,0.21492
88.23407,0.21371
88.53896,0.16541
88.84385,0.18835
89.14874,0.20163
89.45363,0.94539
89.75851,0.46847
90.01259,0.15575

File: 00-073-0268 (PD3).csv
20,100
20.28539,110
20.57078,107
20.85617,66
21.14156,96
21.42695,82
21.71234,88
21.99774,91
22.28313,79
22.56852,86
22.85391,111
23.1393,135
23.42469,1483
23.71008,193
23.99547,105
24.28086,90
24.56625,71
24.85164,84
25.13703,78
25.42242,62
25.70782,71
25.99321,68
26.2786,70
26.56399,56
26.84938,83
27.13477,58
27.42016,57
27.70555,69
27.99094,76
28.27633,61
28.56172,65
28.84711,63
29.1325,62
29.4179,68
29.70329,39
29.98868,67
30.27407,65
30.55946,65
30.84485,46
31.13024,52
31.41563,54
31.70102,47
31.98641,53
32.2718,70
32.55719,96
32.84258,108
33.12798,234
33.41337,3237
33.69876,266
33.98415,92
34.26954,71
34.55493,66
34.84032,57
35.12571,40
35.4111,50
35.69649,47
35.98188,37
36.26727,46
36.55266,33
36.83806,35
37.12345,33
37.40884,52
37.69423,48
37.97962,34
38.26501,41
38.5504,42
38.83579,31
39.12118,50
39.40657,49
39.69196,41
39.97735,45
40.26274,60
40.54813,65
40.83353,95
41.11892,615
41.40431,520
41.6897,74
41.97509,51
42.26048,39
42.54587,49
42.83126,46
43.11665,32
43.40204,39
43.68743,24
43.97282,37
44.25821,35
44.54361,29
44.829,29
45.11439,34
45.39978,34
45.68517,35
45.97056,30
46.25595,38
46.54134,30
46.82673,31
47.11212,39
47.39751,50
47.6829,139
47.96829,864
48.25369,202
48.53908,59
48.82447,32
49.10986,36
49.39525,48
49.68064,25
49.96603,23
50.25142,30
50.53681,26
50.8222,29
51.10759,22
51.39298,25
51.67837,27
51.96377,26
52.24916,33
52.53455,16
52.81994,25
53.10533,34
53.39072,36
53.67611,67
53.9615,291
54.24689,285
54.53228,47
54.81767,31
55.10306,23
55.38845,20
55.67385,21
55.95924,11
56.24463,26
56.53002,20
56.81541,21
57.1008,21
57.38619,26
57.67158,25
57.95697,26
58.24236,32
58.52775,24
58.81314,34
59.09853,50
59.38393,137
59.66932,731
59.95471,388
60.2401,72
60.52549,41
60.81088,25
61.09627,27
61.38166,18
61.66705,21
61.95244,18
62.23783,33
62.52322,21
62.80861,18
63.09401,17
63.3794,20
63.66479,15
63.95018,17
64.23557,15
64.52096,14
64.80635,11
65.09174,19
65.37713,21
65.66252,16
65.94791,14
66.2333,21
66.51869,21
66.80409,21
67.08948,15
67.37487,13
67.66026,17
67.94565,17
68.23104,19
68.51643,12
68.80182,23
69.08721,22
69.3726,18
69.65799,41
69.94338,143
70.22877,367
70.51417,135
70.79956,33
71.08495,31
71.37034,24
71.65573,13
71.94112,20
72.22651,24
72.5119,13
72.79729,21
73.08268,22
73.36807,30
73.65346,22
73.93885,20
74.22424,12
74.50964,27
74.79503,45
75.08042,157
75.36581,103
75.6512,40
75.93659,24
76.22198,22
76.50737,23
76.79276,16
77.07815,29
77.36354,17
77.64893,11
77.93432,19
78.21972,11
78.50511,20
78.7905,15
79.07589,22
79.36128,39
79.64667,94
79.93206,229
80.21745,178
80.50284,52
80.78823,30
81.07362,19
81.35901,22
81.6444,21
81.9298,18
82.21519,19
82.50058,19
82.78597,18
83.07136,21
83.35675,15
83.64214,14
83.92753,25
84.21292,36
84.49831,81
84.7837,176
85.06909,104
85.35448,28
85.63988,17
85.92527,22
86.21066,12
86.49605,20
86.78144,18
87.06683,13
87.35222,21
87.63761,20
87.923,20
88.20839,17
88.49378,21
88.77917,18
89.06456,30
89.34996,87
89.63535,92
89.92074,36
90.20613,27
90.49152,16
90.77691,19
91.0623,11
91.34769,12
91.63308,11
91.91847,18
92.20386,18
92.48925,14
92.77464,20
93.06004,23
93.34543,16
93.63082,18
93.91621,56
94.2016,82
94.48699,51
94.77238,40
95.05777,16
95.34316,20
95.62855,15
95.91394,19
96.19933,16
96.48472,17
96.77012,23
97.05551,10
97.3409,14
97.62629,20
97.91168,23
98.19707,29
98.48246,75
98.76785,180
99.05324,265
99.33863,158
99.62402,69
99.90941,40
99.99095,22

File: 00-073-0364 (PD3).csv
10,15
10.24,13
10.48,11
10.72,15
10.96,10
11.2,7
11.44,17
11.68,16
11.92,11
12.16,13
12.4,11
12.64,15
12.88,13
13.12,11
13.36,14
13.6,13
13.84,10
14.08,8
14.32,13
14.56,6
14.8,10
15.04,12
15.28,10
15.52,10
15.76,15
16,9
16.24,15
16.48,9
16.72,6
16.96,8
17.2,3
17.44,9
17.68,10
17.92,39
18.16,9
18.4,10
18.64,9
18.88,9
19.12,6
19.36,4
19.6,6
19.84,10
20.08,15
20.32,7
20.56,6
20.8,5
21.04,8
21.28,11
21.52,3
21.76,6
22,5
22.24,4
22.48,5
22.72,9
22.96,8
23.2,4
23.44,1
23.68,7
23.92,1
24.16,1
24.4,9
24.64,4
24.88,3
25.12,5
25.36,3
25.6,7
25.84,5
26.08,10
26.32,9
26.56,8
26.8,6
27.04,18
27.28,81
27.52,717
27.76,472
28,28
28.24,17
28.48,14
28.72,11
28.96,9
29.2,6
29.44,42
29.68,194
29.92,8
30.16,10
30.4,6
30.64,2
30.88,5
31.12,2
31.36,4
31.6,3
31.84,5
32.08,2
32.32,7
32.56,6
32.8,5
33.04,141
33.28,104
33.52,6
33.76,10
34,3
34.24,5
34.48,1
34.72,3
34.96,3
35.2,5
35.44,7
35.68,6
35.92,3
36.16,4
36.4,11
36.64,5
36.88,1
37.12,3
37.36,7
37.6,4
37.84,12
38.08,69
38.32,6
38.56,0
38.8,5
39.04,3
39.28,3
39.52,4
39.76,8
40,4
40.24,4
40.48,2
40.72,6
40.96,5
41.2,5
41.44,4
41.68,2
41.92,7
42.16,8
42.4,4
42.64,6
42.88,5
43.12,4
43.36,6
43.6,12
43.84,16
44.08,5
44.32,4
44.56,12
44.8,26
45.04,355
45.28,110
45.52,11
45.76,7
46,4
46.24,4
46.48,3
46.72,4
46.96,5
47.2,6
47.44,34
47.68,140
47.92,7
48.16,3
48.4,9
48.64,6
48.88,5
49.12,3
49.36,4
49.6,6
49.84,6
50.08,3
50.32,7
50.56,4
50.8,1
51.04,4
51.28,89
51.52,180
51.76,9
52,9
52.24,4
52.48,5
52.72,2
52.96,4
53.2,8
53.44,5
53.68,12
53.92,9
54.16,7
54.4,4
54.64,4
54.88,6
55.12,4
55.36,10
55.6,14
55.84,159
56.08,198
56.32,15
56.56,8
56.8,10
57.04,139
57.28,87
57.52,5
57.76,3
58,14
58.24,11
58.48,6
58.72,7
58.96,3
59.2,4
59.44,3
59.68,3
59.92,6
60.16,2
60.4,4
60.64,4
60.88,7
61.12,2
61.36,6
61.6,34
61.84,12
62.08,2
62.32,7
62.56,13
62.8,3
63.04,2
63.28,4
63.52,3
63.76,2
64,3
64.24,6
64.48,3
64.72,6
64.96,5
65.2,2
65.44,6
65.68,4
65.92,1
66.16,3
66.4,2
66.64,13
66.88,11
67.12,3
67.36,1
67.6,2
67.84,2
68.08,4
68.32,2
68.56,4
68.8,5
69.04,7
69.28,4
69.52,26
69.76,22
70,14
70.24,4
70.48,7
70.72,4
70.96,4
71.2,6
71.44,8
71.68,41
71.92,52
72.16,12
72.4,17
72.64,118
72.88,67
73.12,11
73.36,8
73.6,2
73.84,2
74.08,5
74.32,6
74.56,4
74.8,4
75.04,2
75.28,4
75.52,6
75.76,3
76,4
76.24,12
76.48,58
76.72,34
76.96,13
77.2,12
77.44,50
77.68,31
77.92,7
78.16,10
78.4,4
78.64,8
78.88,6
79.12,8
79.36,63
79.6,27
79.84,11
80,3

File: 00-073-0865 (PD3).csv
10,607
10.24,609
10.48,583
10.72,542
10.96,595
11.2,593
11.44,590
11.68,550
11.92,569
12.16,558
12.4,555
12.64,538
12.88,592
13.12,537
13.36,539
13.6,525
13.84,489
14.08,520
14.32,504
14.56,540
14.8,546
15.04,534
15.28,542
15.52,561
15.76,551
16,583
16.24,536
16.48,595
16.72,528
16.96,550
17.2,516
17.44,604
17.68,658
17.92,710
18.16,2695
18.4,976
18.64,623
18.88,625
19.12,608
19.36,676
19.6,705
19.84,577
20.08,597
20.32,839
20.56,706
20.8,671
21.04,577
21.28,594
21.52,608
21.76,599
22,589
22.24,563
22.48,569
22.72,551
22.96,531
23.2,568
23.44,606
23.68,534
23.92,526
24.16,488
24.4,553
24.64,589
24.88,545
25.12,1020
25.36,2566
25.6,844
25.84,7049
26.08,1590
26.32,1072
26.56,3246
26.8,685
27.04,647
27.28,532
27.52,501
27.76,491
28,478
28.24,586
28.48,711
28.72,511
28.96,485
29.2,439
29.44,599
29.68,526
29.92,467
30.16,545
30.4,476
30.64,949
30.88,1244
31.12,411
31.36,537
31.6,518
31.84,501
32.08,400
32.32,432
32.56,414
32.8,422
33.04,425
33.28,883
33.52,404
33.76,396
34,463
34.24,592
34.48,459
34.72,504
34.96,495
35.2,391
35.44,395
35.68,426
35.92,420
36.16,436
36.4,422
36.64,510
36.88,4017
37.12,1869
37.36,466
37.6,583
37.84,613
38.08,857
38.32,389
38.56,370
38.8,410
39.04,405
39.28,354
39.52,377
39.76,372
40,408
40.24,428
40.48,514
40.72,1816
40.96,483
41.2,438
41.44,1895
41.68,1357
41.92,658
42.16,484
42.4,610
42.64,360
42.88,403
43.12,412
43.36,534
43.6,385
43.84,313
44.08,381
44.32,361
44.56,407
44.8,951
45.04,1284
45.28,1852
45.52,603
45.76,468
46,1427
46.24,1477
46.48,2597
46.72,511
46.96,429
47.2,369
47.44,358
47.68,324
47.92,359
48.16,426
48.4,332
48.64,346
48.88,353
49.12,329
49.36,357
49.6,403
49.84,513
50.08,361
50.32,359
50.56,393
50.8,324
51.04,347
51.28,302
51.52,335
51.76,423
52,448
52.24,322
52.48,326
52.72,420
52.96,463
53.2,1733
53.44,810
53.68,429
53.92,358
54.16,343
54.4,438
54.64,526
54.88,351
55.12,323
55.36,601
55.6,596
55.84,423
56.08,1187
56.32,612
56.56,380
56.8,398
57.04,373
57.28,443
57.52,512
57.76,395
58,420
58.24,343
58.48,302
58.72,297
58.96,333
59.2,405
59.44,343
59.68,341
59.92,486
60.16,1392
60.4,505
60.64,332
60.88,485
61.12,496
61.36,368
61.6,317
61.84,333
62.08,307
62.32,439
62.56,548
62.8,337
63.04,336
63.28,372
63.52,430
63.76,415
64,380
64.24,582
64.48,388
64.72,354
64.96,326
65.2,315
65.44,353
65.68,329
65.92,293
66.16,315
66.4,405
66.64,317
66.88,300
67.12,278
67.36,300
67.6,389
67.84,542
68.08,438
68.32,346
68.56,290
68.8,300
69.04,274
69.28,299
69.52,390
69.76,398
70,285
70.24,265
70.48,286
70.72,267
70.96,282
71.2,260
71.44,254
71.68,367
71.92,382
72.16,436
72.4,339
72.64,305
72.88,279
73.12,405
73.36,540
73.6,474
73.84,344
74.08,323
74.32,480
74.56,379
74.8,262
75.04,254
75.28,262
75.52,257
75.76,244
76,264
76.24,250
76.48,240
76.72,232
76.96,251
77.2,248
77.44,259
77.68,246
77.92,268
78.16,259
78.4,250
78.64,323
78.88,253
79.12,269
79.36,246
79.6,273
79.84,408
80,392

File: 00-073-0999 (PD3).csv
10.00836,361
10.27574,350
10.54312,305
10.8105,301
11.07788,293
11.34526,340
11.61264,244
11.88002,234
12.1474,213
12.41478,248
12.68216,248
12.94954,222
13.21692,225
13.4843,188
13.75168,192
14.01906,215
14.28645,204
14.55383,216
14.82121,173
15.08859,183
15.35597,186
15.62335,161
15.89073,190
16.15811,205
16.42549,180
16.69287,177
16.96025,190
17.22763,174
17.49501,180
17.76239,174
18.02977,162
18.29715,171
18.56453,176
18.83191,163
19.09929,169
19.36667,165
19.63405,163
19.90143,171
20.16881,159
20.43619,154
20.70357,151
20.97095,169
21.23833,180
21.50571,177
21.77309,358
22.04047,145
22.30785,160
22.57524,153
22.84262,149
23.11,153
23.37738,161
23.64476,165
23.91214,149
24.17952,150
24.4469,168
24.71428,168
24.98166,162
25.24904,157
25.51642,147
25.7838,146
26.05118,136
26.31856,145
26.58594,159
26.85332,153
27.1207,121
27.38808,177
27.65546,158
27.92284,161
28.19022,161
28.4576,140
28.72498,151
28.99236,162
29.25974,129
29.52712,154
29.7945,167
30.06188,196
30.32926,204
30.59664,518
30.86403,12271
31.13141,511
31.39879,236
31.66617,192
31.93355,216
32.20093,184
32.46831,183
32.73569,203
33.00307,190
33.27045,185
33.53783,171
33.80521,170
34.07259,147
34.33997,159
34.60735,185
34.87473,162
35.14211,158
35.40949,164
35.67687,142
35.94425,157
36.21163,174
36.47901,258
36.74639,150
37.01377,182
37.28115,150
37.54853,154
37.81591,165
38.08329,301
38.35067,149
38.61805,157
38.88543,140
39.15282,125
39.4202,158
39.68758,198
39.95496,158
40.22234,142
40.48972,155
40.7571,151
41.02448,142
41.29186,197
41.55924,133
41.82662,146
42.094,162
42.36138,144
42.62876,151
42.89614,168
43.16352,130
43.4309,125
43.69828,184
43.96566,281
44.23304,2379
44.50042,231
44.7678,165
45.03518,143
45.30256,154
45.56994,237
45.83732,157
46.1047,159
46.37208,145
46.63946,153
46.90684,135
47.17422,159
47.44161,142
47.70899,150
47.97637,160
48.24375,173
48.51113,197
48.77851,128
49.04589,119
49.31327,147
49.58065,203
49.84803,215
50.11541,133
50.38279,141
50.65017,131
50.91755,248
51.18493,158
51.45231,125
51.71969,148
51.98707,126
52.25445,133
52.52183,121
52.78921,143
53.05659,146
53.32397,150
53.59135,174
53.85873,153
54.12611,141
54.39349,181
54.66087,654
54.92825,2894
55.19563,399
55.46301,188
55.73039,158
55.99778,178
56.26516,183
56.53254,146
56.79992,131
57.0673,135
57.33468,165
57.60206,151
57.86944,158
58.13682,125
58.4042,158
58.67158,150
58.93896,149
59.20634,145
59.47372,118
59.7411,142
60.00848,123
60.27586,144
60.54324,164
60.81062,170
61.078,146
61.34538,153
61.61276,117
61.88014,145
62.14752,157
62.4149,135
62.68228,136
62.94966,137
63.21704,132
63.48442,134
63.7518,187
64.01918,362
64.28657,1007
64.55395,396
64.82133,171
65.08871,142
65.35609,146
65.62347,144
65.89085,150
66.15823,136
66.42561,146
66.69299,129
66.96037,145
67.22775,143
67.49513,133
67.76251,153
68.02989,134
68.29727,139
68.56465,160
68.83203,137
69.09941,145
69.36679,136
69.63417,128
69.90155,141
70.16893,153
70.43631,151
70.70369,156
70.97107,173
71.23845,145
71.50583,142
71.77321,108
72.04059,141
72.30797,133
72.57536,156
72.84274,515
73.11012,589
73.3775,218
73.64488,149
73.91226,167
74.17964,160
74.44702,129
74.7144,148
74.98178,148
75.24916,158
75.51654,149
75.78392,144
76.0513,132
76.31868,139
76.58606,145
76.85344,141
77.12082,145
77.3882,147
77.65558,126
77.92296,144
78.19034,182
78.45772,153
78.7251,135
78.99248,113
79.25986,144
79.52724,148
79.79462,147
80.062,115
80.32938,158
80.59676,131
80.86415,144
81.13153,297
81.39891,324
81.66629,204
81.93367,122
82.20105,158
82.46843,141
82.73581,139
83.00319,136
83.27057,161
83.53795,141
83.80533,128
84.07271,120
84.34009,147
84.60747,120
84.87485,136
85.14223,128
85.40961,150
85.67699,127
85.94437,127
86.21175,156
86.47913,144
86.74651,162
87.01389,131
87.28127,122
87.54865,114
87.81603,141
88.08341,134
88.35079,163
88.61817,147
88.88555,188
89.15294,374
89.42032,727
89.6877,499
89.95508,253
90.00521,209