Folder: spectrumdavit/data/xrd_icdd_PDF (part 2)

File: 00-052-1682 (PD3).csv
5,1519
5.46,1465
5.92,1319
6.38,1280
6.84,1155
7.3,1205
7.76,1100
8.22,1171
8.68,1169
9.14,1116
9.6,1099
10.06,1086
10.52,1089
10.98,1093
11.44,1148
11.9,1085
12.36,1610
12.82,1680
13.28,1190
13.74,1152
14.2,1062
14.66,1092
15.12,1020
15.58,959
16.04,929
16.5,929
16.96,942
17.42,942
17.88,927
18.34,915
18.8,879
19.26,892
19.72,869
20.18,910
20.64,842
21.1,920
21.56,1115
22.02,3793
22.48,977
22.94,956
23.4,939
23.86,897
24.32,845
24.78,849
25.24,1086
25.7,896
26.16,877
26.62,897
27.08,830
27.54,919
28,1125
28.46,17237
28.92,992
29.38,927
29.84,920
30.3,1065
30.76,1256
31.22,29561
31.68,1146
32.14,944
32.6,915
33.06,882
33.52,945
33.98,1035
34.44,912
34.9,837
35.36,814
35.82,935
36.28,928
36.74,813
37.2,906
37.66,946
38.12,1715
38.58,5893
39.04,996
39.5,846
39.96,754
40.42,790
40.88,776
41.34,778
41.8,780
42.26,787
42.72,1983
43.18,766
43.64,767
44.1,774
44.56,6599
45.02,888
45.48,699
45.94,770
46.4,877
46.86,897
47.32,780
47.78,730
48.24,941
48.7,1018
49.16,769
49.62,823
50.08,1727
50.54,1039
51,778
51.46,748
51.92,993
52.38,876
52.84,771
53.3,901
53.76,3608
54.22,762
54.68,684
55.14,701
55.6,713
56.06,695
56.52,715
56.98,989
57.44,767
57.9,762
58.36,727
58.82,1550
59.28,825
59.74,866
60.2,4319
60.66,1630
61.12,869
61.58,1043
62.04,1018
62.5,691
62.96,682
63.42,794
63.88,726
64.34,731
64.8,1080
65.26,976
65.72,763
66.18,1042
66.64,1270
67.1,747
67.56,676
68.02,666
68.48,695
68.94,733
69.4,2047
69.86,792
70.32,707
70.78,700
71.24,760
71.7,696
72.16,757
72.62,1233
73.08,688
73.54,794
74,1327
74.46,697
74.92,701
75.38,1002
75.84,716
76.3,792
76.76,691
77.22,718
77.68,860
78.14,3877
78.6,750
79.06,662
79.52,682
79.98,642
80.44,658
80.9,1115
81.36,671
81.82,662
82.28,1125
82.74,650
83.2,725
83.66,1578
84.12,732
84.58,618
85.04,757
85.5,657
85.96,659
86.42,1775
86.88,781
87.34,641
87.8,588
88.26,656
88.72,702
89.18,1770
89.64,793
90.1,646
90.56,585
91.02,635
91.48,625
91.94,784
92.4,630
92.86,616
93.32,732
93.78,652
94.24,704
94.7,2411
95.16,878
95.62,603
96.08,919
96.54,647
97,677
97.46,1545
97.92,739
98.38,713
98.84,898
99.3,852
99.76,681
100.22,1368
100.68,962
101.14,651
101.6,669
102.06,711
102.52,632
102.98,883
103.44,883
103.9,634
104.36,661
104.82,648
105.28,691
105.74,1260
106.2,737
106.66,708
107.12,781
107.58,847
108.04,647
108.5,651
108.96,673
109.42,618
109.88,680
110.34,1202
110.8,882
111.26,980
111.72,2660
112.18,1630
112.64,725
113.1,613
113.56,612
114.02,655
114.48,964
114.94,814
115.4,613
115.86,653
116.32,652
116.78,657
117.24,634
117.7,1305
118.16,972
118.62,689
119.08,776
119.54,729
120,632
120.46,738
120.92,777
121.38,729
121.84,666
122.3,619
122.76,809
123.22,739
123.68,668
124.14,859
124.6,761
125.06,703
125.52,672
125.98,685
126.44,701
126.9,656
127.36,722
127.82,868
128.28,788
128.74,709
129.2,700
129.66,696
130.12,724
130.58,1023
131.04,1450
131.5,1543
131.96,1559
132.42,770
132.88,929
133.34,748
133.8,827
134.26,764
134.72,1417
135.18,1084
135.64,936
136.1,856
136.56,732
137.02,1033
137.48,709
137.94,785
138.4,740
138.86,789
139.32,804
139.78,710
140,742

File: 00-052-1687 (PD3).csv
5,1347
5.46,1206
5.92,1107
6.38,1125
6.84,1146
7.3,1092
7.76,1068
8.22,1020
8.68,1002
9.14,1008
9.6,996
10.06,945
10.52,963
10.98,978
11.44,969
11.9,1071
12.36,15774
12.82,1089
13.28,1056
13.74,972
14.2,930
14.66,975
15.12,879
15.58,918
16.04,933
16.5,906
16.96,915
17.42,3654
17.88,873
18.34,879
18.8,816
19.26,822
19.72,822
20.18,870
20.64,852
21.1,939
21.56,1272
22.02,885
22.48,870
22.94,831
23.4,840
23.86,777
24.32,882
24.78,16101
25.24,816
25.7,783
26.16,774
26.62,819
27.08,903
27.54,1602
28,1722
28.46,885
28.92,870
29.38,870
29.84,1047
30.3,3093
30.76,1947
31.22,945
31.68,882
32.14,882
32.6,909
33.06,6369
33.52,834
33.98,747
34.44,789
34.9,822
35.36,6561
35.82,825
36.28,744
36.74,780
37.2,969
37.66,12984
38.12,852
38.58,723
39.04,714
39.5,663
39.96,699
40.42,651
40.88,639
41.34,705
41.8,1821
42.26,693
42.72,705
43.18,732
43.64,14517
44.1,828
44.56,699
45.02,732
45.48,5664
45.94,759
46.4,669
46.86,759
47.32,7398
47.78,765
48.24,675
48.7,867
49.16,5496
49.62,795
50.08,714
50.54,771
51,1314
51.46,693
51.92,711
52.38,1251
52.84,816
53.3,657
53.76,639
54.22,786
54.68,648
55.14,654
55.6,750
56.06,699
56.52,633
56.98,702
57.44,1323
57.9,774
58.36,879
58.82,6348
59.28,1137
59.74,816
60.2,1023
60.66,1530
61.12,705
61.58,678
62.04,873
62.5,678
62.96,711
63.42,5226
63.88,708
64.34,714
64.8,2097
65.26,750
65.72,639
66.18,630
66.64,630
67.1,675
67.56,900
68.02,1179
68.48,639
68.94,633
69.4,726
69.86,621
70.32,663
70.78,1680
71.24,642
71.7,732
72.16,2625
72.62,651
73.08,681
73.54,1542
74,633
74.46,630
74.92,1428
75.38,660
75.84,879
76.3,4083
76.76,669
77.22,630
77.68,684
78.14,624
78.6,660
79.06,879
79.52,609
79.98,723
80.44,777
80.9,645
81.36,1329
81.82,879
82.28,621
82.74,603
83.2,600
83.66,645
84.12,4092
84.58,681
85.04,576
85.5,555
85.96,594
86.42,657
86.88,1053
87.34,606
87.8,555
88.26,552
88.72,555
89.18,591
89.64,987
90.1,564
90.56,603
91.02,792
91.48,600
91.94,1077
92.4,912
92.86,579
93.32,1092
93.78,606
94.24,573
94.7,1734
95.16,597
95.62,591
96.08,837
96.54,609
97,582
97.46,804
97.92,618
98.38,591
98.84,609
99.3,597
99.76,633
100.22,759
100.68,588
101.14,546
101.6,555
102.06,564
102.52,687
102.98,876
103.44,609
103.9,810
104.36,1167
104.82,606
105.28,606
105.74,669
106.2,576
106.66,693
107.12,864
107.58,630
108.04,1461
108.5,2136
108.96,585
109.42,597
109.88,558
110.34,573
110.8,642
111.26,699
111.72,573
112.18,606
112.64,567
113.1,582
113.56,621
114.02,621
114.48,618
114.94,570
115.4,627
115.86,600
116.32,618
116.78,1137
117.24,918
117.7,576
118.16,645
118.62,600
119.08,591
119.54,642
120,624
120.46,600
120.92,582
121.38,651
121.84,654
122.3,603
122.76,1545
123.22,798
123.68,603
124.14,573
124.6,624
125.06,636
125.52,717
125.98,4140
126.44,1332
126.9,747
127.36,720
127.82,729
128.28,852
128.74,672
129.2,1161
129.66,753
130.12,744
130.58,663
131.04,1167
131.5,684
131.96,633
132.42,603
132.88,732
133.34,627
133.8,621
134.26,603
134.72,627
135.18,636
135.64,606
136.1,669
136.56,1899
137.02,759
137.48,702
137.94,645
138.4,963
138.86,654
139.32,777
139.78,648
140,636

File: 00-054-0249 (PD3).csv
3,759
3.3,635
3.6,688
3.9,648
4.2,612
4.5,637
4.8,604
5.1,587
5.4,572
5.7,609
6,650
6.3,706
6.6,720
6.9,670
7.2,673
7.5,723
7.8,780
8.1,818
8.4,838
8.7,779
9,809
9.3,847
9.6,909
9.9,1011
10.2,1035
10.5,1059
10.8,1144
11.1,1174
11.4,1175
11.7,1280
12,1281
12.3,1210
12.6,1312
12.9,1336
13.2,1326
13.5,1414
13.8,2024
14.1,3217
14.4,2438
14.7,10637
15,1445
15.3,1469
15.6,1585
15.9,1463
16.2,1410
16.5,1494
16.8,1517
17.1,1973
17.4,2113
17.7,1426
18,1490
18.3,1440
18.6,1507
18.9,1456
19.2,1394
19.5,1463
19.8,1420
20.1,1445
20.4,1442
20.7,1357
21,1454
21.3,1447
21.6,1400
21.9,1465
22.2,2097
22.5,1425
22.8,1444
23.1,1489
23.4,1674
23.7,2928
24,1551
24.3,1548
24.6,1434
24.9,1469
25.2,1397
25.5,1650
25.8,2105
26.1,1605
26.4,1508
26.7,1576
27,1684
27.3,2410
27.6,1764
27.9,2135
28.2,24005
28.5,8504
28.8,2336
29.1,1984
29.4,6119
29.7,4435
30,1769
30.3,1660
30.6,1638
30.9,1676
31.2,2040
31.5,13090
31.8,1824
32.1,1570
32.4,1642
32.7,1603
33,1611
33.3,1567
33.6,1668
33.9,6498
34.2,1709
34.5,2276
34.8,2449
35.1,2226
35.4,1502
35.7,1582
36,2079
36.3,1758
36.6,1636
36.9,1959
37.2,1813
37.5,1541
37.8,2088
38.1,1587
38.4,1741
38.7,1533
39,1764
39.3,1574
39.6,1517
39.9,1445
40.2,1457
40.5,1610
40.8,1495
41.1,1545
41.4,1439
41.7,1845
42,1618
42.3,1868
42.6,1848
42.9,4276
43.2,1526
43.5,1607
43.8,2855
44.1,1826
44.4,1555
44.7,1568
45,4345
45.3,2237
45.6,1575
45.9,1652
46.2,1550
46.5,1593
46.8,2134
47.1,1668
47.4,1681
47.7,8410
48,2033
48.3,5392
48.6,5947
48.9,1847
49.2,1736
49.5,4188
49.8,1823
50.1,2793
50.4,1665
50.7,1901
51,5008
51.3,1861
51.6,2526
51.9,3241
52.2,1877
52.5,3480
52.8,1787
53.1,2096
53.4,4480
53.7,2078
54,1609
54.3,1555
54.6,1620
54.9,1682
55.2,1890
55.5,3743
55.8,3386
56.1,1921
56.4,3246
56.7,1994
57,1623
57.3,1630
57.6,1857
57.9,2226
58.2,4043
58.5,2375
58.8,2549
59.1,1662
59.4,2500
59.7,1603
60,1557
60.3,1540
60.6,1658
60.9,1677
61.2,2624
61.5,2057
61.8,3483
62.1,1737
62.4,1784
62.7,1936
63,1768
63.3,5506
63.6,2335
63.9,1884
64.2,3125
64.5,2615
64.8,1890
65.1,1779
65.4,2361
65.7,3158
66,1680
66.3,1640
66.6,1546
66.9,1567
67.2,1656
67.5,2339
67.8,1816
68.1,3315
68.4,1940
68.7,1691
69,1866
69.3,1851
69.6,1908
69.9,1696
70.2,1768
70.5,1807
70.8,1609
71.1,1937
71.4,1613
71.7,1578
72,1585
72.3,1578
72.6,1605
72.9,1518
73.2,1595
73.5,1687
73.8,1995
74.1,1974
74.4,1761
74.7,1769
75,1670
75.3,1712
75.6,1901
75.9,2064
76.2,2713
76.5,2640
76.8,2743
77.1,1915
77.4,1763
77.7,1843
78,1838
78.3,3170
78.6,2993
78.9,2602
79.2,2468
79.5,2216
79.8,2434
80.1,2110
80.4,1880
80.7,1666
81,2476
81.3,1728
81.6,1917
81.9,2232
82.2,3170
82.5,2875
82.8,1671
83.1,1749
83.4,1700
83.7,1978
84,1853
84.3,1929
84.6,1748
84.9,1748
85.2,2396
85.5,2351
85.8,1834
86.1,1597
86.4,1621
86.7,1717
87,1730
87.3,1638
87.6,2310
87.9,1942
88.2,1692
88.5,1692
88.8,1947
89.1,1959
89.4,1808
89.7,1776
90,1678

File: 00-054-0562 (PD3).csv
10,1056
10.34,952
10.68,1052
11.02,904
11.36,888
11.7,846
12.04,786
12.38,836
12.72,796
13.06,742
13.4,698
13.74,690
14.08,634
14.42,658
14.76,666
15.1,600
15.44,608
15.78,698
16.12,634
16.46,680
16.8,532
17.14,608
17.48,528
17.82,544
18.16,480
18.5,600
18.84,516
19.18,484
19.52,500
19.86,552
20.2,582
20.54,590
20.88,566
21.22,612
21.56,680
21.9,2610
22.24,1122
22.58,604
22.92,544
23.26,574
23.6,586
23.94,662
24.28,806
24.62,3220
24.96,582
25.3,578
25.64,622
25.98,578
26.32,644
26.66,716
27,750
27.34,820
27.68,1122
28.02,6188
28.36,2738
28.7,946
29.04,746
29.38,756
29.72,644
30.06,652
30.4,698
30.74,690
31.08,780
31.42,828
31.76,886
32.1,1604
32.44,12880
32.78,12820
33.12,1788
33.46,1104
33.8,872
34.14,748
34.48,680
34.82,726
35.16,624
35.5,622
35.84,658
36.18,508
36.52,684
36.86,648
37.2,1104
37.54,5632
37.88,7970
38.22,958
38.56,536
38.9,454
39.24,374
39.58,342
39.92,382
40.26,382
40.6,392
40.94,410
41.28,414
41.62,402
41.96,552
42.3,708
42.64,1340
42.98,9198
43.32,6816
43.66,952
44,536
44.34,454
44.68,438
45.02,420
45.36,374
45.7,420
46.04,432
46.38,508
46.72,512
47.06,520
47.4,520
47.74,574
48.08,736
48.42,1110
48.76,2710
49.1,11120
49.44,1320
49.78,766
50.12,1734
50.46,1668
50.8,616
51.14,596
51.48,670
51.82,946
52.16,4130
52.5,2878
52.84,652
53.18,540
53.52,358
53.86,364
54.2,424
54.54,374
54.88,416
55.22,406
55.56,442
55.9,462
56.24,480
56.58,436
56.92,476
57.26,556
57.6,604
57.94,736
58.28,1906
58.62,12344
58.96,1638
59.3,662
59.64,414
59.98,438
60.32,374
60.66,428
61,472
61.34,544
61.68,1718
62.02,790
62.36,1660
62.7,3454
63.04,930
63.38,512
63.72,484
64.06,468
64.4,428
64.74,420
65.08,428
65.42,446
65.76,428
66.1,442
66.44,574
66.78,756
67.12,2262
67.46,4716
67.8,1182
68.14,1624
68.48,1922
68.82,776
69.16,596
69.5,596
69.84,1288
70.18,1432
70.52,648
70.86,600
71.2,582
71.54,652
71.88,1300
72.22,5126
72.56,12800
72.9,2494
73.24,1092
73.58,676
73.92,544
74.26,516
74.6,566
74.94,722
75.28,1576
75.62,2000
75.96,670
76.3,516
76.64,396
76.98,368
77.32,344
77.66,484
78,770
78.34,1182
78.68,622
79.02,536
79.36,908
79.7,552
80.04,400
80.38,372
80.72,372
81.06,364
81.4,382
81.74,358
82.08,402
82.42,466
82.76,622
83.1,1176
83.44,2112
83.78,836
84.12,586
84.46,640
84.8,468
85.14,438
85.48,532
85.82,1226
86.16,840
86.5,378
86.84,382
87.18,318
87.52,352
87.86,334
88.2,334
88.54,316
88.88,318
89.22,344
89.56,352
89.9,410
90.24,524
90.58,708
90.92,2194
91.26,2320
91.6,946
91.94,468
92.28,372
92.62,468
92.96,462
93.3,516
93.64,800
93.98,904
94.32,1158
94.66,2364
95,2244
95.34,962
95.68,582
96.02,492
96.36,372
96.7,432
97.04,438
97.38,438
97.72,428
98.06,536
98.4,766
98.74,1756
99.08,1822
99.42,1036
99.76,786
100.1,680
100.44,480
100.78,552
101.12,846
101.46,996
101.8,806
102.14,630
102.48,566
102.82,616
103.16,850
103.5,1860
103.84,4072
104.18,3100
104.52,1590
104.86,888
105.2,644
105.54,648
105.88,652
106.22,760
106.56,1638
106.9,2252
107.24,1432
107.58,746
107.92,640
108.26,578
108.6,590
108.94,616
109.28,882
109.62,1232
109.96,1498
110.02,1682

File: 00-054-0567 (PD3).csv
5.16616,4498.664
5.52616,4367.42
5.88616,4003.09
6.24616,3981.62
6.60616,3887.16
6.96616,3866.24
7.32616,3789.02
7.68616,3814.29
8.04616,3618.235
8.40616,3589.72
8.76616,3637.22
9.12616,3666.69
9.48616,3654.51
9.84616,3538.61
10.20616,3399.39
10.56616,3494.92
10.92616,3516.2
11.28616,3515.54
11.64616,3499.64
12.00616,3559.58
12.36616,3522.5
12.72616,3446.41
13.08616,3564.88
13.44616,3423.82
13.80616,3447.67
14.16616,3486.68
14.52616,3448.83
14.88616,3474.79
15.24616,3501.05
15.60616,3391.15
15.96616,3542.39
16.32616,3441.01
16.68616,3332.03
17.04616,3563.41
17.40616,3451.47
17.76616,3475.84
18.12616,3427.21
18.48616,3363.8
18.84616,3528.19
19.20616,3384.27
19.56616,3389.74
19.92616,3405.88
20.28616,3274.42
20.64616,3250.5
21.00616,3314.34
21.36616,3343.81
21.72616,3325.516
22.08616,3357.01
22.44616,3334.28
22.80616,3322.53
23.16616,3480.35
23.52616,3350.32
23.88616,3285.21
24.24616,3564.85
24.60616,3355.97
24.96616,4411.41
25.32616,3407.25
25.68616,3339.16
26.04616,3297.92
26.40616,3273.21
26.76616,3326.05
27.12616,3660.97
27.48616,3292.44
27.84616,3247.57
28.20616,3348.42
28.56616,3285.32
28.92616,3287.19
29.28616,3282.55
29.64616,3261.68
30.00616,3254.48
30.36616,3615.44
30.72616,3484.58
31.08616,3393.13
31.44616,3956.22
31.80616,4715.93
32.16616,3399.47
32.52616,4010.09
32.88616,3600.02
33.24616,3329.17
33.60616,3290.3
33.96616,3389.91
34.32616,5367.21
34.68616,3534.33
35.04616,7444.86
35.40616,16707.7
35.76616,3468.93
36.12616,3556.57
36.48616,3728.81
36.84616,3700.22
37.20616,4226.16
37.56616,3398.04
37.92616,4213.28
38.28616,3986.43
38.64616,9680.46
39.00616,4365.59
39.36616,4709.78
39.72616,3462.6
40.08616,3360.45
40.44616,3206.2
40.80616,4158.46
41.16616,7062.52
41.52616,3448.1
41.88616,3371.47
42.24616,3480.42
42.60616,3288.74
42.96616,4499.85
43.32616,6677.19
43.68616,3232.46
44.04616,3216.57
44.40616,3512.16
44.76616,3071.77
45.12616,3099.2
45.48616,3805.56
45.84616,3176.58
46.20616,3137.55
46.56616,5234.93
46.92616,5139.43
47.28616,3364.24
47.64616,3440.18
48.00616,3384.03
48.36616,3317.49
48.72616,3353.79
49.08616,3607.79
49.44616,4325.43
49.80616,9915.28
50.16616,3571.56
50.52616,3146.13
50.88616,3518.84
51.24616,3382.54
51.60616,3454.22
51.96616,3159.54
52.32616,3374.8
52.68616,3367.77
53.04616,3679.76
53.40616,3591.36
53.76616,4693.06
54.12616,3513.99
54.48616,3266.43
54.84616,3326.23
55.20616,3635.88
55.56616,3516.29
55.92616,3487.19
56.28616,5113.63
56.64616,3342
57.00616,3544.5
57.36616,3472.34
57.72616,5210.68
58.08616,3323.57
58.44616,3479.31
58.80616,3309.44
59.16616,3924.15
59.52616,3826.09
59.88616,3709.85
60.24616,3307.19
60.60616,3393.47
60.96616,3267.14
61.32616,3304.69
61.68616,3452.06
62.04616,3675.89
62.40616,3523.1
62.76616,5330.68
63.12616,3941.21
63.48616,4405.2
63.84616,3382.15
64.20616,3540.2
64.56616,3622
64.92616,6038.74
65.28616,3473.63
65.64616,3550.51
66.00616,3449.05
66.36616,3344.71
66.72616,5937.4
67.08616,3419.15
67.44616,3756.27
67.80616,3614.68
68.16616,3805.68
68.52616,5276.752
68.88616,3450.5
69.24616,3367.8
69.60616,3971.39
69.96616,3403.97
70.32616,3241.19
70.68616,3575.23
71.04616,4207.84
71.40616,3361.56
71.76616,3351.94
72.12616,3330.5
72.48616,3454.24
72.84616,3384.85
73.20616,3483.47
73.56616,3468.07
73.92616,3781.66
74.28616,4551.01
74.64616,3369.87
75.00616,5073.23
75.36616,3587.841
75.72616,3364
76.08616,4220.85
76.44616,3341.13
76.80616,3546.97
77.16616,3538.92
77.52616,4667.79
77.88616,3607.38
78.24616,3800.26
78.60616,3909.82
78.96616,3688.06
79.32616,3787.99
79.68616,4459.53
80.04616,3471.23
80.40616,3654.68
80.76616,3704.84
81.12616,4793.59
81.48616,4131.39
81.84616,3368.08
82.20616,3578.74
82.56616,4176.13
82.92616,3407.43
83.28616,3315.679
83.64616,4447.62
84.00616,3744.07
84.36616,3358.24
84.72616,3588.61
85.08616,3447.91
85.44616,3661.06
85.80616,3887.26
86.16616,4845.842
86.52616,3545.39
86.88616,3425.33
87.24616,3782.79
87.60616,3548.01
87.96616,3779.57
88.32616,3703.22
88.68616,3252.11
89.04616,3435.87
89.40616,3448.86
89.76616,3475.88
90.12616,3490.11
90.48616,3378.71
90.84616,3217.08
91.20616,3546.74
91.56616,3899.89
91.92616,4850.45
92.28616,3382.93
92.64616,3208.49
93.00616,3339.77
93.36616,3265.07
93.72616,3534.53
94.08616,3498.02
94.44616,3499.43
94.80616,3684
95.16616,3398.27
95.52616,4195.84
95.88616,3771.84
96.24616,3317.9
96.60616,3321.1
96.96616,3367.71
97.32616,3594.01
97.68616,3500.63
98.04616,3625.97
98.40616,3387.43
98.76616,3569.49
99.12616,3436.19
99.48616,3544.67
99.84616,3505.33
100.206,3896.62
100.566,3404.69
100.926,3273.57
101.286,3831.04
101.646,3491.04
102.006,3821.54
102.366,3537.02
102.726,3316.76
103.086,3933.28
103.446,3527.8
103.806,3524.53
104.166,3453.68
104.526,4054.482
104.886,3875.05
105.246,3891.09
105.606,3353.33
105.966,3382.13
106.326,3723.01
106.686,3508.37
107.046,3337.89
107.406,3365.56
107.766,3993.9
108.026,3870.72

File: 00-054-1203 (PD3).csv
3,1322
3.3,1182
3.6,1128
3.9,1065
4.2,1022
4.5,992
4.8,925
5.1,944
5.4,929
5.7,943
6,1060
6.3,1035
6.6,1060
6.9,942
7.2,975
7.5,944
7.8,983
8.1,959
8.4,979
8.7,1070
9,1057
9.3,1092
9.6,1086
9.9,1110
10.2,1105
10.5,1223
10.8,1225
11.1,1306
11.4,1239
11.7,1310
12,1332
12.3,1333
12.6,1275
12.9,1334
13.2,1314
13.5,1520
13.8,2664
14.1,1595
14.4,2650
14.7,1511
15,1330
15.3,1495
15.6,1384
15.9,1455
16.2,1477
16.5,1578
16.8,1811
17.1,5896
17.4,1451
17.7,1436
18,1405
18.3,1395
18.6,1397
18.9,1400
19.2,1370
19.5,1351
19.8,1379
20.1,1378
20.4,1367
20.7,1463
21,1368
21.3,1459
21.6,1367
21.9,1490
22.2,1464
22.5,1410
22.8,1423
23.1,1464
23.4,1466
23.7,1727
24,1402
24.3,1362
24.6,1324
24.9,1335
25.2,1485
25.5,1448
25.8,1849
26.1,1363
26.4,1516
26.7,1531
27,1403
27.3,2064
27.6,1746
27.9,6717
28.2,9027
28.5,1768
28.8,1730
29.1,3779
29.4,2906
29.7,1531
30,1484
30.3,1430
30.6,1503
30.9,1678
31.2,7972
31.5,1626
31.8,1471
32.1,1388
32.4,1437
32.7,1356
33,1381
33.3,1490
33.6,1779
33.9,1606
34.2,1731
34.5,7412
34.8,1568
35.1,1418
35.4,1456
35.7,2363
36,1475
36.3,1954
36.6,1452
36.9,1432
37.2,1412
37.5,2072
37.8,1380
38.1,1576
38.4,1400
38.7,1426
39,1329
39.3,1338
39.6,1396
39.9,1439
40.2,1465
40.5,1528
40.8,1426
41.1,1352
41.4,1748
41.7,1830
42,1427
42.3,1816
42.6,2274
42.9,1451
43.2,1496
43.5,1737
43.8,1980
44.1,1489
44.4,1845
44.7,1976
45,1834
45.3,1523
45.6,1443
45.9,1421
46.2,1462
46.5,1801
46.8,1503
47.1,4344
47.4,1771
47.7,1846
48,1896
48.3,2430
48.6,1526
48.9,2008
49.2,1649
49.5,2357
49.8,1559
50.1,1548
50.4,2293
50.7,1984
51,1652
51.3,2992
51.6,1777
51.9,2657
52.2,1576
52.5,1590
52.8,3119
53.1,1964
53.4,1526
53.7,1454
54,1512
54.3,1523
54.6,1478
54.9,2809
55.2,2220
55.5,1640
55.8,3575
56.1,1640
56.4,1464
56.7,1438
57,1609
57.3,1714
57.6,2761
57.9,2900
58.2,1663
58.5,2695
58.8,1655
59.1,1441
59.4,1408
59.7,1507
60,1531
60.3,1562
60.6,2085
60.9,1535
61.2,1750
61.5,2022
61.8,1548
62.1,1623
62.4,1636
62.7,2349
63,2088
63.3,1578
63.6,2562
63.9,1868
64.2,1598
64.5,1485
64.8,2153
65.1,2505
65.4,1664
65.7,1537
66,1471
66.3,1468
66.6,1460
66.9,1921
67.2,2133
67.5,1739
67.8,1501
68.1,1518
68.4,1848
68.7,2033
69,1533
69.3,1566
69.6,1465
69.9,1594
70.2,1491
70.5,1635
70.8,1515
71.1,1435
71.4,1492
71.7,1446
72,1530
72.3,1452
72.6,1903
72.9,1609
73.2,1469
73.5,2086
73.8,1632
74.1,1541
74.4,1596
74.7,1527
75,1590
75.3,1831
75.6,2107
75.9,1863
76.2,1668
76.5,1960
76.8,1651
77.1,1997
77.4,2043
77.7,2211
78,1779
78.3,1738
78.6,2430
78.9,1917
79.2,1631
79.5,2088
79.8,1867
80.1,1775
80.4,1655
80.7,1616
81,1726
81.3,1952
81.6,1639
81.9,1635
82.2,1516
82.5,1708
82.8,1630
83.1,1540
83.4,1607
83.7,1551
84,1629
84.3,2278
84.6,1945
84.9,1541
85.2,1615
85.5,1611
85.8,1460
86.1,1540
86.4,1577
86.7,1541
87,1659
87.3,1599
87.6,1693
87.9,1626
88.2,1682
88.5,1619
88.8,1608
89.1,1596
89.4,1705
89.7,2157
90,1836

File: 00-054-1204 (PD3).csv
3,747
3.3,737
3.6,674
3.9,706
4.2,663
4.5,617
4.8,612
5.1,599
5.4,568
5.7,649
6,692
6.3,741
6.6,729
6.9,667
7.2,688
7.5,670
7.8,729
8.1,845
8.4,717
8.7,787
9,889
9.3,905
9.6,924
9.9,993
10.2,1106
10.5,1100
10.8,1167
11.1,1203
11.4,1210
11.7,1270
12,1251
12.3,1272
12.6,1392
12.9,1285
13.2,1444
13.5,1371
13.8,1790
14.1,3605
14.4,2298
14.7,12069
15,1596
15.3,1466
15.6,1423
15.9,1486
16.2,1462
16.5,1555
16.8,1526
17.1,1905
17.4,3614
17.7,1496
18,1445
18.3,1508
18.6,1505
18.9,1453
19.2,1399
19.5,1482
19.8,1441
20.1,1474
20.4,1492
20.7,1445
21,1470
21.3,1512
21.6,1457
21.9,1524
22.2,2193
22.5,1473
22.8,1402
23.1,1436
23.4,1608
23.7,2349
24,1557
24.3,1581
24.6,1473
24.9,1498
25.2,1455
25.5,1599
25.8,1943
26.1,1668
26.4,1517
26.7,1732
27,1683
27.3,2079
27.6,1795
27.9,2064
28.2,13611
28.5,13508
28.8,3412
29.1,1913
29.4,3928
29.7,12890
30,1911
30.3,1777
30.6,1758
30.9,1727
31.2,2041
31.5,15661
31.8,2045
32.1,1685
32.4,1649
32.7,1508
33,1601
33.3,1631
33.6,1675
33.9,5345
34.2,1782
34.5,2053
34.8,2643
35.1,4050
35.4,1560
35.7,1720
36,1943
36.3,2113
36.6,1655
36.9,2358
37.2,2340
37.5,1636
37.8,1664
38.1,1681
38.4,1909
38.7,1589
39,1506
39.3,1540
39.6,1475
39.9,1529
40.2,1512
40.5,1566
40.8,1605
41.1,1600
41.4,1500
41.7,1620
42,1809
42.3,2352
42.6,1870
42.9,3153
43.2,1680
43.5,1648
43.8,2119
44.1,1956
44.4,1570
44.7,1603
45,4609
45.3,2452
45.6,1587
45.9,1747
46.2,1575
46.5,1668
46.8,1862
47.1,1658
47.4,1663
47.7,2564
48,3300
48.3,3046
48.6,3159
48.9,2192
49.2,1768
49.5,2850
49.8,2023
50.1,2965
50.4,1738
50.7,1837
51,4875
51.3,2100
51.6,2088
51.9,4052
52.2,1873
52.5,2785
52.8,2160
53.1,2004
53.4,3662
53.7,2179
54,1730
54.3,1629
54.6,1611
54.9,1631
55.2,1964
55.5,2425
55.8,7127
56.1,1858
56.4,2018
56.7,3544
57,1737
57.3,1776
57.6,1788
57.9,2003
58.2,3715
58.5,2151
58.8,3993
59.1,1785
59.4,1937
59.7,2825
60,1620
60.3,1695
60.6,1638
60.9,1727
61.2,1793
61.5,2492
61.8,2285
62.1,2121
62.4,1658
62.7,2099
63,1828
63.3,3933
63.6,2651
63.9,1910
64.2,2519
64.5,1854
64.8,2448
65.1,1832
65.4,2405
65.7,4342
66,1913
66.3,1622
66.6,1681
66.9,1692
67.2,1671
67.5,2012
67.8,2156
68.1,1738
68.4,2246
68.7,1949
69,2343
69.3,1733
69.6,1931
69.9,2117
70.2,1713
70.5,1781
70.8,1623
71.1,1868
71.4,1785
71.7,1620
72,1614
72.3,1603
72.6,1593
72.9,1572
73.2,1603
73.5,1769
73.8,1902
74.1,3135
74.4,1847
74.7,1645
75,1713
75.3,1739
75.6,1781
75.9,1872
76.2,2032
76.5,2092
76.8,2249
77.1,2631
77.4,1830
77.7,1818
78,2160
78.3,2567
78.6,3128
78.9,2533
79.2,2400
79.5,2072
79.8,4929
80.1,3185
80.4,1956
80.7,1718
81,2139
81.3,2356
81.6,1782
81.9,2192
82.2,1996
82.5,2446
82.8,1967
83.1,1789
83.4,1757
83.7,1880
84,2126
84.3,2074
84.6,2144
84.9,1777
85.2,2207
85.5,2423
85.8,2001
86.1,1867
86.4,1714
86.7,1803
87,1777
87.3,1738
87.6,2002
87.9,1947
88.2,1787
88.5,1743
88.8,2267
89.1,3438
89.4,2602
89.7,1790
90,1804

File: 00-055-0638 (PD3).csv
6,4523
6.32,4241
6.64,4064
6.96,3906
7.28,3578
7.6,3466
7.92,3321
8.24,3164
8.56,3032
8.88,2882
9.2,2783
9.52,2652
9.84,2672
10.16,2463
10.48,2395
10.8,2238
11.12,2256
11.44,2133
11.76,1975
12.08,1881
12.4,1914
12.72,1871
13.04,1733
13.36,1707
13.68,1600
14,1555
14.32,1516
14.64,1487
14.96,1487
15.28,1411
15.6,1392
15.92,1323
16.24,1287
16.56,1406
16.88,1416
17.2,1238
17.52,1256
17.84,1152
18.16,1173
18.48,1122
18.8,1169
19.12,1081
19.44,1269
19.76,1487
20.08,10113
20.4,3101
20.72,12769
21.04,4718
21.36,1203
21.68,1052
22,1036
22.32,1000
22.64,949
22.96,3977
23.28,896
23.6,961
23.92,791
24.24,823
24.56,809
24.88,919
25.2,1502
25.52,923
25.84,908
26.16,2538
26.48,1097
26.8,893
27.12,870
27.44,893
27.76,827
28.08,770
28.4,812
28.72,1135
29.04,930
29.36,1482
29.68,2407
30,49701
30.32,1822
30.64,1229
30.96,1319
31.28,1301
31.6,2082
31.92,32829
32.24,2133
32.56,1565
32.88,1444
33.2,2059
33.52,50766
33.84,2950
34.16,3875
34.48,68415
34.8,2685
35.12,1328
35.44,1064
35.76,1118
36.08,10738
36.4,1671
36.72,889
37.04,896
37.36,1008
37.68,852
38,863
38.32,1748
38.64,1131
38.96,904
39.28,827
39.6,3481
39.92,689
40.24,739
40.56,679
40.88,756
41.2,2991
41.52,874
41.84,1865
42.16,2665
42.48,3108
42.8,953
43.12,692
43.44,666
43.76,743
44.08,699
44.4,791
44.72,2053
45.04,1383
45.36,3466
45.68,13326
46,1126
46.32,795
46.64,977
46.96,9276
47.28,1199
47.6,774
47.92,699
48.24,729
48.56,1203
48.88,2849
49.2,722
49.52,666
49.84,736
50.16,692
50.48,2389
50.8,1671
51.12,774
51.44,919
51.76,1754
52.08,10328
52.4,1156
52.72,878
53.04,3342
53.36,1865
53.68,3782
54,2364
54.32,2227
54.64,2698
54.96,1260
55.28,1152
55.6,16803
55.92,3228
56.24,1036
56.56,852
56.88,798
57.2,863
57.52,2304
57.84,1056
58.16,837
58.48,2475
58.8,996
59.12,809
59.44,852
59.76,819
60.08,1081
60.4,5729
60.72,15892
61.04,1876
61.36,1160
61.68,4848
62,2652
62.32,5166
62.64,1260
62.96,1283
63.28,5467
63.6,3653
63.92,1036
64.24,781
64.56,911
64.88,4590
65.2,3503
65.52,977
65.84,1595
66.16,2221
66.48,6602
66.8,4909
67.12,1008
67.44,712
67.76,774
68.08,1477
68.4,973
68.72,1190
69.04,2383
69.36,2849
69.68,819
70,597
70.32,760
70.64,2053
70.96,774
71.28,625
71.6,573
71.92,558
72.24,573
72.56,2215
72.88,1844
73.2,609
73.52,564
73.84,647
74.16,938
74.48,834
74.8,1186
75.12,1287
75.44,594
75.76,515
76.08,481
76.4,696
76.72,683
77.04,523
77.36,457
77.68,473
78,859
78.32,1182
78.64,1355
78.96,1305
79.28,1216
79.6,1980
79.92,911
80.24,532
80.56,520
80.88,743
81.2,696
81.52,468
81.84,476
82.16,503
82.48,509
82.8,518
83.12,457
83.44,465
83.76,679
84.08,625
84.4,1048
84.72,2036
85.04,2203
85.36,1580
85.68,1402
86,1101
86.32,885
86.64,1828
86.96,2750
87.28,1110
87.6,616
87.92,613
88.24,653
88.56,1077
88.88,2197
89.2,1463
89.52,812
89.84,576
90.16,579
90.48,791
90.8,706
91.12,619
91.44,1028
91.76,3335
92.08,2340
92.4,1497
92.72,1416
93.04,1305
93.36,1269
93.68,984
94,893
94.32,1089
94.64,1449
94.96,1064
95.28,641
95.6,911
95.92,1702
96.24,1458
96.56,791
96.88,638
97.2,613
97.52,585
97.84,509
98.16,549
98.48,509
98.8,582
99.12,603
99.44,576
99.76,712
99.98,1152