Folder: spectrumdavit/data/xrd_icdd_PDF (part 17)

File: 00-069-0819 (PD3).csv
5,1424
5.33,1413
5.66,1302
5.98999,1248
6.31999,1147
6.64999,1156
6.97999,1202
7.30998,1164
7.63998,1112
7.96998,1098
8.29998,1158
8.62998,1134
8.95997,1155
9.28997,1144
9.61997,1137
9.94997,1095
10.27996,1120
10.60996,1087
10.93996,1095
11.26996,1115
11.59996,1120
11.92995,1103
12.25995,1094
12.58995,1162
12.91995,1113
13.24995,1121
13.57994,1104
13.90994,1117
14.23994,1154
14.56994,1140
14.89993,1144
15.22993,1193
15.55993,1128
15.88993,1202
16.21993,1179
16.54992,1201
16.87992,1236
17.20992,1200
17.53992,1229
17.86991,1240
18.19991,1282
18.52991,1244
18.85991,1266
19.18991,1380
19.5199,1350
19.8499,1382
20.1799,1370
20.5099,1436
20.83989,1428
21.16989,1477
21.49989,1564
21.82989,2241
22.15989,3160
22.48988,3296
22.81988,2391
23.14988,1628
23.47988,1527
23.80987,1605
24.13987,1541
24.46987,1486
24.79987,1507
25.12987,1494
25.45986,1599
25.78986,1484
26.11986,1470
26.44986,1549
26.77985,1478
27.10985,1519
27.43985,1478
27.76985,1431
28.09985,1660
28.42984,4726
28.75984,1486
29.08984,1394
29.41984,1375
29.74984,1345
30.07983,1338
30.40983,1312
30.73983,1255
31.06983,1354
31.39982,1331
31.72982,1258
32.05982,1327
32.38982,1325
32.71982,1586
33.04981,6015
33.37981,6309
33.70981,2029
34.03981,8099
34.3698,2368
34.6998,1401
35.0298,1288
35.3598,1775
35.6898,46925
36.01979,2113
36.34979,1223
36.67979,1361
37.00979,3712
37.33978,2196
37.66978,8847
37.99978,13001
38.32978,2701
38.65978,26577
38.98977,1894
39.31977,1085
39.64977,902
39.97977,876
40.30976,847
40.63976,873
40.96976,849
41.29976,1754
41.62976,983
41.95975,985
42.28975,4054
42.61975,1231
42.94975,873
43.27974,838
43.60974,743
43.93974,783
44.26974,820
44.59974,778
44.92973,787
45.25973,764
45.58973,791
45.91973,761
46.24972,872
46.57972,1997
46.90972,3127
47.23972,1041
47.56972,815
47.89971,775
48.22971,786
48.55971,836
48.88971,927
49.21971,1215
49.5497,13441
49.8797,1791
50.2097,6400
50.5397,1232
50.86969,903
51.19969,792
51.52969,794
51.85969,764
52.18969,1038
52.51968,3752
52.84968,841
53.17968,757
53.50968,741
53.83967,730
54.16967,749
54.49967,915
54.82967,735
55.15967,765
55.48966,757
55.81966,763
56.14966,1511
56.47966,781
56.80965,1318
57.13965,842
57.46965,1183
57.79965,1453
58.12965,949
58.45964,1391
58.78964,9998
59.11964,1416
59.44964,1362
59.77963,1517
60.10963,2988
60.43963,7788
60.76963,2804
61.09963,1016
61.42962,836
61.75962,755
62.08962,772
62.41962,759
62.74961,785
63.07961,765
63.40961,797
63.73961,803
64.06961,768
64.3996,831
64.7296,989
65.0596,1145
65.3896,3848
65.7196,8841
66.04959,4632
66.37959,2038
66.70959,994
67.03959,843
67.36958,784
67.69958,789
68.02958,900
68.35958,2031
68.68958,858
69.01957,802
69.34957,879
69.67957,2785
70.00957,1217
70.33956,1216
70.66956,7542
70.99956,1557
71.32956,1000
71.65956,1184
71.98955,2840
72.31955,14889
72.64955,8510
72.97955,1718
73.30954,967
73.63954,942
73.96954,847
74.29954,984
74.62954,2366
74.95953,1463
75.28953,834
75.61953,2333
75.94953,933
76.27952,716
76.60952,875
76.93952,722
77.26952,666
77.59952,674
77.92951,686
78.25951,762
78.58951,709
78.91951,689
79.2495,696
79.5795,688
79.9095,1096
80.2395,838
80.5695,929
80.89949,3606
81.22949,1043
81.55949,698
81.88949,651
82.21949,685
82.54948,716
82.87948,1014
83.20948,833
83.53948,757
83.86947,641
84.19947,636
84.52947,695
84.85947,911
85.18947,2128
85.51946,1099
85.84946,1183
86.17946,767
86.50946,619
86.83945,630
87.16945,675
87.49945,863
87.82945,664
88.15945,634
88.48944,606
88.81944,661
89.14944,855
89.47944,597
89.80943,596
90.13943,602
90.46943,764
90.79943,587
91.12943,610
91.45942,619
91.78942,623
92.11942,577
92.44942,586
92.77941,600
93.10941,625
93.43941,693
93.76941,849
94.09941,1211
94.4294,5327
94.7594,1590
95.0894,795
95.4194,752
95.7494,735
96.07939,1070
96.40939,2397
96.73939,1463
97.06939,972
97.39938,1024
97.72938,763
98.05938,796
98.38938,896
98.71938,836
99.04937,770
99.37937,823
99.70937,1543
99.99437,4206

File: 00-070-0047 (PD3).csv
10,156
10.27,162
10.54,124
10.81,142
11.08,138
11.35,132
11.62,122
11.89,100
12.16,108
12.43,104
12.7,112
12.97,90
13.24,92
13.51,98
13.78,88
14.05,104
14.32,102
14.59,88
14.86,90
15.13,88
15.4,72
15.67,100
15.94,90
16.21,98
16.48,62
16.75,94
17.02,100
17.29,84
17.56,78
17.83,100
18.1,96
18.37,110
18.64,84
18.91,90
19.18,82
19.45,76
19.72,74
19.99,90
20.26,70
20.53,68
20.8,78
21.07,84
21.34,90
21.61,82
21.88,92
22.15,84
22.42,74
22.69,84
22.96,62
23.23,92
23.5,88
23.77,84
24.04,62
24.31,66
24.58,90
24.85,90
25.12,78
25.39,70
25.66,80
25.93,68
26.2,64
26.47,88
26.74,76
27.01,74
27.28,88
27.55,64
27.82,70
28.09,76
28.36,84
28.63,78
28.9,82
29.17,96
29.44,106
29.71,86
29.98,78
30.25,76
30.52,68
30.79,82
31.06,106
31.33,108
31.6,532
31.87,402
32.14,88
32.41,74
32.68,86
32.95,66
33.22,80
33.49,68
33.76,86
34.03,88
34.3,64
34.57,92
34.84,88
35.11,86
35.38,98
35.65,256
35.92,702
36.19,118
36.46,88
36.73,90
37,88
37.27,74
37.54,92
37.81,84
38.08,82
38.35,82
38.62,78
38.89,70
39.16,82
39.43,76
39.7,88
39.97,58
40.24,68
40.51,80
40.78,90
41.05,74
41.32,62
41.59,78
41.86,88
42.13,80
42.4,86
42.67,76
42.94,68
43.21,78
43.48,68
43.75,88
44.02,82
44.29,104
44.56,72
44.83,74
45.1,74
45.37,70
45.64,76
45.91,76
46.18,72
46.45,86
46.72,82
46.99,94
47.26,90
47.53,110
47.8,100
48.07,138
48.34,318
48.61,1430
48.88,192
49.15,112
49.42,108
49.69,82
49.96,100
50.23,84
50.5,94
50.77,100
51.04,82
51.31,102
51.58,100
51.85,86
52.12,100
52.39,102
52.66,94
52.93,92
53.2,102
53.47,74
53.74,96
54.01,104
54.28,86
54.55,102
54.82,94
55.09,90
55.36,84
55.63,100
55.9,100
56.17,98
56.44,106
56.71,94
56.98,88
57.25,90
57.52,92
57.79,94
58.06,88
58.33,80
58.6,88
58.87,96
59.14,92
59.41,74
59.68,72
59.95,92
60.22,88
60.49,96
60.76,84
61.03,84
61.3,90
61.57,88
61.84,76
62.11,92
62.38,84
62.65,88
62.92,78
63.19,96
63.46,82
63.73,98
64,120
64.27,452
64.54,166
64.81,104
65.08,106
65.35,112
65.62,92
65.89,124
66.16,402
66.43,158
66.7,114
66.97,92
67.24,92
67.51,94
67.78,88
68.05,92
68.32,90
68.59,84
68.86,110
69.13,94
69.4,96
69.67,110
69.94,100
70.21,100
70.48,88
70.75,108
71.02,90
71.29,98
71.56,120
71.83,88
72.1,112
72.37,98
72.64,106
72.91,104
73.18,192
73.45,454
73.72,196
73.99,110
74.26,130
74.53,98
74.8,112
75.07,100
75.34,134
75.61,204
75.88,234
76.15,138
76.42,112
76.69,128
76.96,128
77.23,192
77.5,908
77.77,468
78.04,118
78.31,102
78.58,108
78.85,110
79.12,106
79.39,108
79.66,88
79.93,98
80.2,100
80.47,126
80.74,106
81.01,112
81.28,120
81.55,110
81.82,102
82.09,110
82.36,116
82.63,130
82.9,122
83.17,118
83.44,112
83.71,126
83.98,156
84.25,266
84.52,302
84.79,194
85.06,156
85.33,110
85.6,110
85.87,118
86.14,100
86.41,118
86.68,118
86.95,130
87.22,106
87.49,106
87.76,116
88.03,138
88.3,124
88.57,128
88.84,110
89.11,124
89.38,108
89.65,116
89.92,118
90,102

File: 00-070-0155 (PD3).csv
10,491.667
10.24,466.667
10.48,516.667
10.72,566.667
10.96,666.667
11.2,633.333
11.44,500
11.68,416.667
11.92,491.667
12.16,425
12.4,433.333
12.64,3083.33
12.88,408.333
13.12,383.333
13.36,400
13.6,358.333
13.84,383.333
14.08,425
14.32,341.667
14.56,333.333
14.8,383.333
15.04,225
15.28,275
15.52,250
15.76,258.333
16,258.333
16.24,283.333
16.48,233.333
16.72,325
16.96,358.333
17.2,300
17.44,258.333
17.68,291.667
17.92,250
18.16,191.667
18.4,258.333
18.64,291.667
18.88,233.333
19.12,258.333
19.36,358.333
19.6,200
19.84,258.333
20.08,250
20.32,300
20.56,333.333
20.8,225
21.04,241.667
21.28,233.333
21.52,216.667
21.76,158.333
22,158.333
22.24,200
22.48,325
22.72,258.333
22.96,266.667
23.2,250
23.44,225
23.68,291.667
23.92,175
24.16,258.333
24.4,275
24.64,308.333
24.88,233.333
25.12,325
25.36,658.333
25.6,508.333
25.84,391.667
26.08,325
26.32,358.333
26.56,241.667
26.8,225
27.04,233.333
27.28,300
27.52,333.333
27.76,258.333
28,266.667
28.24,250
28.48,258.333
28.72,341.667
28.96,258.333
29.2,3583.33
29.44,491.667
29.68,325
29.92,1483.33
30.16,350
30.4,150
30.64,258.333
30.88,233.333
31.12,183.333
31.36,150
31.6,300.03
31.84,275
32.08,733.333
32.32,291.667
32.56,258.333
32.8,233.333
33.04,216.667
33.28,200
33.52,200
33.76,158.333
34,208.333
34.24,283.333
34.48,250
34.72,391.667
34.96,1241.67
35.2,15450
35.44,691.667
35.68,275
35.92,225
36.16,241.667
36.4,266.667
36.64,275
36.88,266.667
37.12,166.667
37.36,200
37.6,216.667
37.84,150
38.08,191.667
38.32,200
38.56,350
38.8,283.333
39.04,466.667
39.28,933.333
39.52,283.333
39.76,175
40,158.333
40.24,208.333
40.48,183.333
40.72,183.333
40.96,158.333
41.2,133.333
41.44,83.3333
41.68,158.333
41.92,216.667
42.16,175
42.4,175
42.64,208.333
42.88,200
43.12,150
43.36,191.667
43.6,308.333
43.84,2958.33
44.08,2808.33
44.32,325
44.56,150
44.8,183.333
45.04,133.333
45.28,175
45.52,158.333
45.76,116.667
46,133.333
46.24,166.667
46.48,158.333
46.72,158.333
46.96,133.333
47.2,141.667
47.44,75
47.68,133.333
47.92,200
48.16,166.667
48.4,158.333
48.64,108.333
48.88,191.667
49.12,325
49.36,475
49.6,141.667
49.84,100
50.08,175
50.32,158.333
50.56,258.333
50.8,116.667
51.04,175
51.28,175
51.52,341.667
51.76,541.667
52,3525
52.24,541.667
52.48,1825
52.72,233.333
52.96,133.333
53.2,208.333
53.44,216.667
53.68,975
53.92,233.333
54.16,175
54.4,208.333
54.64,225
54.88,525
55.12,700
55.36,183.333
55.6,216.667
55.84,166.667
56.08,158.333
56.32,166.667
56.56,175
56.8,75
57.04,66.6667
57.28,158.333
57.52,125
57.76,83.3333
58,125
58.24,141.667
58.48,241.667
58.72,1625
58.96,133.333
59.2,141.667
59.44,175
59.68,175
59.92,116.667
60.16,100
60.4,166.667
60.64,600
60.88,941.667
61.12,1916.67
61.36,566.667
61.6,208.333
61.84,150
62.08,83.3333
62.32,225
62.56,150
62.8,108.333
63.04,150
63.28,58.3333
63.52,100
63.76,108.333
64,191.667
64.24,4183.33
64.48,875
64.72,125
64.96,100
65.2,158.333
65.44,116.667
65.68,125
65.92,125
66.16,191.667
66.4,266.667
66.64,433.333
66.88,341.667
67.12,266.667
67.36,141.667
67.6,158.333
67.84,116.667
68.08,91.6667
68.32,133.333
68.56,141.667
68.8,116.667
69.04,116.667
69.28,166.667
69.52,150
69.76,75
70,141.667
70.24,1366.67
70.48,1316.67
70.72,166.667
70.96,58.3333
71.2,100
71.44,108.333
71.68,50
71.92,91.6667
72.16,91.6667
72.4,75
72.64,83.3333
72.88,150
73.12,116.667
73.36,108.333
73.6,83.3333
73.84,116.667
74.08,116.667
74.32,258.333
74.56,158.333
74.8,100
75.04,158.333
75.28,141.667
75.52,191.667
75.76,108.333
76,58.3333
76.24,91.6667
76.48,200
76.72,708.333
76.96,908.333
77.2,241.667
77.44,158.333
77.68,125
77.92,116.667
78.16,150
78.4,175
78.64,125
78.88,208.333
79.12,225
79.36,116.667
79.6,166.667
79.84,83.3333
80,141.667

File: 00-071-0570 (PD3).csv
3,289
3.55,302
4.1,221
4.65,235
5.2,199
5.75,230
6.3,181
6.85,208
7.4,226
7.95,159
8.5,183
9.05,180
9.6,174
10.15,157
10.7,190
11.25,153
11.8,187
12.35,155
12.9,176
13.45,164
14,210
14.55,166
15.1,179
15.65,164
16.2,145
16.75,148
17.3,196
17.85,255
18.4,139
18.95,151
19.5,143
20.05,152
20.6,183
21.15,156
21.7,318
22.25,175
22.8,184
23.35,201
23.9,158
24.45,152
25,166
25.55,138
26.1,157
26.65,172
27.2,207
27.75,217
28.3,3940
28.85,160
29.4,170
29.95,1128
30.5,2173
31.05,181
31.6,170
32.15,166
32.7,158
33.25,144
33.8,170
34.35,149
34.9,152
35.45,281
36,340
36.55,124
37.1,136
37.65,125
38.2,162
38.75,183
39.3,647
39.85,455
40.4,153
40.95,235
41.5,1035
42.05,186
42.6,152
43.15,387
43.7,206
44.25,1103
44.8,172
45.35,166
45.9,939
46.45,145
47,140
47.55,1462
48.1,140
48.65,132
49.2,145
49.75,285
50.3,148
50.85,142
51.4,203
51.95,246
52.5,460
53.05,379
53.6,352
54.15,1922
54.7,187
55.25,244
55.8,150
56.35,258
56.9,311
57.45,123
58,373
58.55,1863
59.1,179
59.65,372
60.2,1404
60.75,391
61.3,350
61.85,135
62.4,254
62.95,369
63.5,218
64.05,471
64.6,419
65.15,166
65.7,300
66.25,168
66.8,161
67.35,148
67.9,349
68.45,196
69,339
69.55,632
70.1,219
70.65,226
71.2,2143
71.75,220
72.3,421
72.85,598
73.4,269
73.95,484
74.5,195
75.05,200
75.6,716
76.15,494
76.7,917
77.25,156
77.8,290
78.35,173
78.9,364
79.45,187
80,168
80.55,596
81.1,543
81.65,580
82.2,436
82.75,181
83.3,273
83.85,204
84.4,496
84.95,244
85.5,286
86.05,490
86.6,257
87.15,632
87.7,182
88.25,607
88.8,608
89.35,205
89.9,218
90.45,327
91,783
91.55,181
92.1,150
92.65,226
93.2,406
93.75,195
94.3,282
94.85,315
95.4,689
95.95,239
96.5,236
97.05,576
97.6,874
98.15,371
98.7,309
99.25,196
99.8,291
100.35,239
100.9,474
101.45,297
102,289
102.55,546
103.1,193
103.65,271
104.2,397
104.75,237
105.3,583
105.85,683
106.4,565
106.95,268
107.5,344
108.05,233
108.6,243
109.15,194
109.7,190
110.25,194
110.8,479
111.35,532
111.9,340
112.45,640
113,324
113.55,693
114.1,870
114.65,258
115.2,229
115.75,575
116.3,308
116.85,370
117.4,229
117.95,194
118.5,287
119.05,404
119.6,262
120.15,449
120.7,278
121.25,255
121.8,236
122.35,286
122.9,223
123.45,385
124,298
124.55,234
125.1,376
125.65,604
126.2,519
126.75,380
127.3,393
127.85,266
128.4,232
128.95,243
129.5,273
130.05,270
130.6,315
131.15,405
131.7,600
132.25,501
132.8,296
133.35,337
133.9,322
134.45,246
135,233
135.55,234
136.1,266
136.65,266
137.2,242
137.75,222
138.3,205
138.85,223
139.4,291
139.95,458
140.5,763
141.05,691
141.6,298
142.15,295
142.7,388
143.25,396
143.8,362
144.35,307
144.9,392
145.45,356
146,391
146.55,344
147.1,271
147.65,244
148.2,219
148.75,280
149.3,449
149.85,593
150.4,532
150.95,369
151.5,282
152.05,258
152.6,266
153.15,296
153.7,279
154.25,285
154.8,301
155.35,368
155.9,427
156.45,477
157,537
157.55,493
158.1,400
158.65,320
159.2,287
159.75,281
160.3,298
160.85,313
161.4,301
161.95,316
162.5,345
163.05,314
163.6,305
164.15,348
164.7,403
165.25,471
165.8,490
166.35,524
166.9,565
167.45,617
167.75,628

File: 00-071-0759 (PD3).csv
10,394
10.28546,417
10.57091,442
10.85637,388
11.14182,375
11.42728,395
11.71274,362
11.99819,389
12.28365,369
12.5691,412
12.85456,370
13.14002,365
13.42547,357
13.71093,376
13.99638,352
14.28184,327
14.5673,337
14.85275,313
15.13821,317
15.42366,301
15.70912,328
15.99458,312
16.28003,309
16.56549,276
16.85094,301
17.1364,297
17.42186,288
17.70731,318
17.99277,286
18.27822,273
18.56368,277
18.84914,334
19.13459,297
19.42005,356
19.7055,320
19.99096,307
20.27642,326
20.56187,319
20.84733,354
21.13278,329
21.41824,330
21.7037,317
21.98915,332
22.27461,359
22.56006,396
22.84552,331
23.13098,335
23.41643,306
23.70189,319
23.98734,301
24.2728,331
24.55826,336
24.84371,327
25.12917,327
25.41462,353
25.70008,420
25.98554,369
26.27099,372
26.55645,385
26.8419,402
27.12736,336
27.41282,397
27.69827,425
27.98373,382
28.26918,406
28.55464,385
28.8401,430
29.12555,430
29.41101,399
29.69646,396
29.98192,448
30.26738,411
30.55283,421
30.83829,456
31.12374,484
31.4092,1635
31.69466,509
31.98011,462
32.26557,420
32.55102,413
32.83648,453
33.12194,411
33.40739,425
33.69285,387
33.9783,439
34.26376,435
34.54922,430
34.83467,388
35.12013,574
35.40558,447
35.69104,513
35.9765,627
36.26195,1168
36.54741,1021
36.83286,501
37.11832,426
37.40378,435
37.68923,414
37.97469,426
38.26014,426
38.5456,457
38.83106,427
39.11651,450
39.40197,408
39.68742,443
39.97288,434
40.25834,429
40.54379,527
40.82925,1110
41.1147,512
41.40016,466
41.68562,455
41.97107,457
42.25653,357
42.54198,401
42.82744,393
43.1129,399
43.39835,475
43.68381,406
43.96926,489
44.25472,393
44.54018,368
44.82563,411
45.11109,383
45.39654,413
45.682,406
45.96746,345
46.25291,413
46.53837,425
46.82382,397
47.10928,407
47.39474,380
47.68019,431
47.96565,428
48.2511,420
48.53656,407
48.82202,419
49.10747,381
49.39293,403
49.67838,370
49.96384,402
50.2493,387
50.53475,410
50.82021,403
51.10566,408
51.39112,382
51.67658,385
51.96203,359
52.24749,395
52.53294,388
52.8184,378
53.10386,380
53.38931,372
53.67477,361
53.96022,354
54.24568,396
54.53114,431
54.81659,395
55.10205,417
55.3875,446
55.67296,650
55.95842,793
56.24387,459
56.52933,411
56.81478,381
57.10024,401
57.3857,376
57.67115,418
57.95661,369
58.24206,419
58.52752,411
58.81298,374
59.09843,401
59.38389,380
59.66934,394
59.9548,421
60.24026,389
60.52571,403
60.81117,400
61.09662,389
61.38208,433
61.66754,364
61.95299,455
62.23845,554
62.5239,740
62.80936,462
63.09482,443
63.38027,398
63.66573,390
63.95118,391
64.23664,419
64.5221,398
64.80755,437
65.09301,455
65.37846,773
65.66392,573
65.94938,405
66.23483,375
66.52029,391
66.80574,370
67.0912,370
67.37666,422
67.66211,407
67.94757,427
68.23302,378
68.51848,416
68.80394,419
69.08939,382
69.37485,418
69.6603,413
69.94576,403
70.23122,414
70.51667,393
70.80213,404
71.08758,460
71.37304,503
71.6585,525
71.94395,434
72.22941,383
72.51486,418
72.80032,383
73.08578,376
73.37123,409
73.65669,386
73.94214,404
74.2276,429
74.51306,516
74.79851,398
75.08397,399
75.36942,371
75.65488,408
75.94034,386
76.22579,399
76.51125,387
76.7967,415
77.08216,417
77.36762,423
77.65307,441
77.93853,400
78.22398,348
78.50944,399
78.7949,401
79.08035,397
79.36581,378
79.65126,390
79.93672,399
80.22218,402
80.50763,380
80.79309,381
81.07854,375
81.364,365
81.64946,386
81.93491,395
82.22037,370
82.50582,389
82.79128,387
83.07674,384
83.36219,367
83.64765,391
83.9331,372
84.21856,405
84.50402,363
84.78947,393
85.07493,388
85.36038,404
85.64584,397
85.9313,393
86.21675,375
86.50221,386
86.78766,391
87.07312,402
87.35858,410
87.64403,408
87.92949,445
88.21494,434
88.5004,508
88.78586,478
89.07131,404
89.35677,379
89.64222,377
89.92768,392
90.0038,391

File: 00-071-0760 (PD3).csv
10,423
10.28546,402
10.57091,429
10.85637,410
11.14182,388
11.42728,446
11.71274,387
11.99819,419
12.28365,426
12.5691,411
12.85456,397
13.14002,419
13.42547,460
13.71093,395
13.99638,439
14.28184,404
14.5673,431
14.85275,409
15.13821,393
15.42366,461
15.70912,431
15.99458,436
16.28003,445
16.56549,464
16.85094,422
17.1364,411
17.42186,439
17.70731,414
17.99277,421
18.27822,466
18.56368,450
18.84914,440
19.13459,418
19.42005,455
19.7055,418
19.99096,438
20.27642,479
20.56187,411
20.84733,452
21.13278,415
21.41824,461
21.7037,456
21.98915,466
22.27461,426
22.56006,467
22.84552,481
23.13098,464
23.41643,473
23.70189,456
23.98734,471
24.2728,473
24.55826,477
24.84371,477
25.12917,440
25.41462,449
25.70008,476
25.98554,450
26.27099,485
26.55645,460
26.8419,446
27.12736,503
27.41282,425
27.69827,411
27.98373,487
28.26918,479
28.55464,448
28.8401,479
29.12555,471
29.41101,479
29.69646,517
29.98192,492
30.26738,459
30.55283,520
30.83829,481
31.12374,624
31.4092,627
31.69466,528
31.98011,533
32.26557,484
32.55102,540
32.83648,473
33.12194,422
33.40739,499
33.69285,521
33.9783,506
34.26376,551
34.54922,743
34.83467,544
35.12013,556
35.40558,1037
35.69104,6732
35.9765,849
36.26195,627
36.54741,553
36.83286,504
37.11832,511
37.40378,503
37.68923,476
37.97469,526
38.26014,498
38.5456,506
38.83106,506
39.11651,541
39.40197,484
39.68742,535
39.97288,627
40.25834,1107
40.54379,566
40.82925,491
41.1147,490
41.40016,507
41.68562,470
41.97107,475
42.25653,474
42.54198,505
42.82744,474
43.1129,568
43.39835,548
43.68381,489
43.96926,468
44.25472,498
44.54018,448
44.82563,448
45.11109,504
45.39654,463
45.682,482
45.96746,482
46.25291,485
46.53837,496
46.82382,451
47.10928,483
47.39474,450
47.68019,547
47.96565,483
48.2511,501
48.53656,496
48.82202,442
49.10747,490
49.39293,483
49.67838,464
49.96384,481
50.2493,491
50.53475,485
50.82021,467
51.10566,490
51.39112,449
51.67658,506
51.96203,495
52.24749,433
52.53294,483
52.8184,471
53.10386,497
53.38931,516
53.67477,485
53.96022,446
54.24568,512
54.53114,464
54.81659,561
55.10205,736
55.3875,776
55.67296,498
55.95842,479
56.24387,496
56.52933,520
56.81478,516
57.10024,556
57.3857,492
57.67115,461
57.95661,459
58.24206,469
58.52752,476
58.81298,484
59.09843,499
59.38389,509
59.66934,434
59.9548,499
60.24026,483
60.52571,496
60.81117,626
61.09662,845
61.38208,528
61.66754,448
61.95299,460
62.23845,520
62.5239,510
62.80936,514
63.09482,462
63.38027,504
63.66573,521
63.95118,515
64.23664,477
64.5221,546
64.80755,770
65.09301,637
65.37846,562
65.66392,525
65.94938,441
66.23483,477
66.52029,501
66.80574,504
67.0912,459
67.37666,457
67.66211,462
67.94757,460
68.23302,466
68.51848,463
68.80394,447
69.08939,471
69.37485,469
69.6603,492
69.94576,558
70.23122,667
70.51667,532
70.80213,482
71.08758,454
71.37304,473
71.6585,461
71.94395,476
72.22941,456
72.51486,558
72.80032,605
73.08578,500
73.37123,468
73.65669,474
73.94214,470
74.2276,511
74.51306,482
74.79851,471
75.08397,437
75.36942,503
75.65488,542
75.94034,498
76.22579,471
76.51125,468
76.7967,428
77.08216,432
77.36762,481
77.65307,480
77.93853,447
78.22398,490
78.50944,492
78.7949,396
79.08035,479
79.36581,461
79.65126,451
79.93672,458
80.22218,477
80.50763,444
80.79309,458
81.07854,482
81.364,479
81.64946,439
81.93491,468
82.22037,441
82.50582,467
82.79128,424
83.07674,435
83.36219,501
83.64765,475
83.9331,484
84.21856,444
84.50402,477
84.78947,448
85.07493,500
85.36038,471
85.64584,478
85.9313,506
86.21675,511
86.50221,502
86.78766,522
87.07312,539
87.35858,451
87.64403,530
87.92949,484
88.21494,506
88.5004,486
88.78586,485
89.07131,454
89.35677,443
89.64222,458
89.92768,481
90.0038,443

File: 00-071-0802 (PD3).csv
6.13022,59.17234
6.31022,58.87376
6.49022,63.74184
6.67022,70.19503
6.85022,68.40968
7.03022,60.48384
7.21022,69.61045
7.39022,70.47495
7.57022,65.43683
7.75022,65.38677
7.93022,64.04595
8.11022,73.52476
8.29022,69.70228
8.47022,64.38337
8.65022,68.26736
8.83022,71.41261
9.01022,72.26973
9.19022,69.80926
9.37022,60.99001
9.55022,67.05764
9.73022,66.64292
9.91022,61.25548
10.09022,54.73475
10.27022,55.99561
10.45022,69.13348
10.63022,73.80797
10.81022,62.48079
10.99022,63.22561
11.17022,57.87581
11.35022,58.61884
11.53022,64.26157
11.71022,66.94385
11.89022,59.99642
12.07022,69.98671
12.25022,173.239
12.43022,285.7147
12.61022,58.44975
12.79022,75.40903
12.97022,59.03639
13.15022,62.49935
13.33022,56.16573
13.51022,62.17234
13.69022,52.16232
13.87022,67.09004
14.05022,61.30933
14.23022,62.257
14.41022,68.65002
14.59022,55.66294
14.77022,65.1027
14.95022,66.18358
15.13022,59.1307
15.31022,65.13611
15.49022,53.20183
15.67022,68.98129
15.85022,57.31428
16.03022,54.361
16.21022,63.60142
16.39022,63.74119
16.57022,70.14902
16.75022,59.10502
16.93022,72.29533
17.11022,88.47516
17.29022,93.11301
17.47022,63.595
17.65022,60.03021
17.83022,59.47801
18.01022,56.97552
18.19022,65.70855
18.37022,84.41259
18.55022,203.427
18.73022,1759.69
18.91022,135.5137
19.09022,70.36077
19.27022,62.63014
19.45022,71.2745
19.63022,75.36537
19.81022,73.79266
19.99022,64.64411
20.17022,56.84022
20.35022,55.78904
20.53022,60.2035
20.71022,59.60355
20.89022,62.32385
21.07022,65.21448
21.25022,71.23484
21.43022,459.417
21.61022,216.077
21.79022,63.10378
21.97022,66.83706
22.15022,48.61574
22.33022,48.71648
22.51022,57.76166
22.69022,49.52958
22.87022,52.90069
23.05022,55.16783
23.23022,49.6686
23.41022,50.80307
23.59022,51.37413
23.77022,47.74169
23.95022,51.91619
24.13022,48.22561
24.31022,50.7902
24.49022,51.53015
24.67022,55.10853
24.85022,410.7256
25.03022,74.70024
25.21022,44.49661
25.39022,47.90544
25.57022,50.66706
25.75022,51.5624
25.93022,54.4346
26.11022,53.21992
26.29022,59.5249
26.47022,49.30681
26.65022,54.116
26.83022,52.79745
27.01022,54.27583
27.19022,52.15813
27.37022,48.40183
27.55022,44.73501
27.73022,53.23558
27.91022,62.70253
28.09022,128.018
28.27022,210.906
28.45022,108.289
28.63022,1009.89
28.81022,168.963
28.99022,55.41174
29.17022,41.53525
29.35022,42.10105
29.53022,39.49062
29.71022,38.11671
29.89022,42.1884
30.07022,37.68114
30.25022,44.7341
30.43022,37.40958
30.61022,40.06121
30.79022,52.62286
30.97022,55.66292
31.15022,35.63128
31.33022,34.25569
31.51022,32.15852
31.69022,35.18613
31.87022,33.30015
32.05022,29.72088
32.23022,30.28648
32.41022,33.71368
32.59022,32.03818
32.77022,35.63818
32.95022,40.48187
33.13022,82.39665
33.31022,37.02435
33.49022,35.66048
33.67022,28.91946
33.85022,30.33808
34.03022,31.41578
34.21022,29.7984
34.39022,29.48827
34.57022,30.34217
34.75022,29.88488
34.93022,33.89787
35.11022,25.68822
35.29022,29.73654
35.47022,34.01897
35.65022,70.12314
35.83022,75.8027
36.01022,93.25233
36.19022,125.632
36.37022,34.58139
36.55022,29.02838
36.73022,28.47368
36.91022,24.89025
37.09022,23.72339
37.27022,29.19948
37.45022,26.76037
37.63022,66.96906
37.81022,106.305
37.99022,290.77
38.17022,60.8014
38.35022,33.76232
38.53022,33.67027
38.71022,27.11946
38.89022,25.24198
39.07022,26.33927
39.25022,26.75545
39.43022,29.22894
39.61022,28.20637
39.79022,28.63522
39.97022,33.52176
40.15022,25.50244
40.33022,65.46624
40.51022,52.52807
40.69022,26.98284
40.87022,26.76659
41.05022,33.95926
41.23022,25.79599
41.41022,20.11917
41.59022,26.80261
41.77022,23.61909
41.95022,30.68455
42.13022,22.26816
42.31022,28.24797
42.49022,24.54587
42.67022,30.99925
42.85022,29.60838
43.03022,30.79748
43.21022,31.58393
43.39022,25.55725
43.57022,42.38749
43.75022,235.173
43.93022,170.263
44.11022,74.12056
44.29022,43.79991
44.47022,30.77866
44.65022,40.76136
44.83022,71.65444
45.01022,29.84375
45.19022,31.19876
45.37022,28.76472
45.55022,27.14922
45.73022,24.62108
45.91022,17.60219
46.09022,28.84918
46.27022,22.48199
46.45022,17.62147
46.63022,22.47273
46.81022,24.49636
46.99022,23.16921
47.17022,22.39685
47.35022,24.80781
47.53022,27.59753
47.71022,54.11821
47.89022,53.86228
48.07022,122.702
48.25022,37.25841
48.43022,22.80762
48.61022,23.47187
48.79022,22.82284
48.97022,20.05762
49.15022,18.78643
49.33022,20.84346
49.51022,24.13725
49.69022,26.25618
49.87022,37.31314
50.05022,68.40756
50.23022,148.613
50.41022,47.69487
50.59022,21.07811
50.77022,21.14337
50.95022,34.56017
51.13022,39.79764
51.31022,26.19893
51.49022,21.10947
51.67022,19.0242
51.85022,14.46862
52.03022,15.25868
52.21022,19.69155
52.39022,19.21073
52.57022,30.15101
52.75022,56.06639
52.93022,156.276
53.11022,104.319
53.29022,98.58881
53.47022,29.23388
53.65022,17.74225
53.83022,23.63612
54.01022,16.52545
54.19022,25.41772
54.37022,29.15623
54.55022,55.19226
54.73022,39.13235
54.91022,28.71229
55.09022,39.51633
55.27022,74.07305
55.45022,29.86861
55.63022,19.34127
55.81022,18.32964
55.99022,26.22244
56.17022,15.92944
56.35022,18.13779
56.53022,17.30646
56.71022,16.53185
56.89022,15.80111
57.07022,14.77545
57.25022,19.42773
57.43022,14.30222
57.61022,15.18152
57.79022,25.72312
57.97022,78.73296
58.15022,75.81652
58.33022,43.83478
58.51022,28.71405
58.69022,24.76241
58.87022,25.38142
59.05022,45.63618
59.19022,58.05279