Folder: spectrumdavit/data/xrd_icdd_PDF (part 11)

File: 00-063-0401 (PD3).csv
5,1215
5.4,989
5.8,875
6.2,836
6.6,716
7,758
7.4,707
7.8,575
8.2,598
8.6,617
9,534
9.4,499
9.8,430
10.2,462
10.6,432
11,434
11.4,437
11.8,407
12.2,344
12.6,390
13,372
13.4,310
13.8,342
14.2,282
14.6,259
15,249
15.4,256
15.8,286
16.2,298
16.6,280
17,270
17.4,266
17.8,222
18.2,259
18.6,256
19,236
19.4,243
19.8,217
20.2,213
20.6,229
21,249
21.4,219
21.8,245
22.2,203
22.6,213
23,196
23.4,208
23.8,199
24.2,231
24.6,370
25,280
25.4,217
25.8,192
26.2,238
26.6,215
27,240
27.4,314
27.8,1804
28.2,337
28.6,191
29,258
29.4,246
29.8,1444
30.2,273
30.6,286
31,418
31.4,730
31.8,282
32.2,684
32.6,345
33,717
33.4,1662
33.8,585
34.2,450
34.6,1229
35,3165
35.4,8510
35.8,785
36.2,1032
36.6,393
37,365
37.4,1243
37.8,802
38.2,1167
38.6,2527
39,751
39.4,340
39.8,215
40.2,224
40.6,222
41,404
41.4,293
41.8,252
42.2,383
42.6,240
43,568
43.4,210
43.8,259
44.2,326
44.6,196
45,182
45.4,247
45.8,407
46.2,323
46.6,360
47,233
47.4,219
47.8,226
48.2,240
48.6,409
49,316
49.4,471
49.8,365
50.2,573
50.6,1663
51,781
51.4,554
51.8,266
52.2,337
52.6,256
53,208
53.4,277
53.8,427
54.2,246
54.6,239
55,310
55.4,367
55.8,721
56.2,395
56.6,705
57,448
57.4,1030
57.8,471
58.2,298
58.6,520
59,474
59.4,379
59.8,866
60.2,303
60.6,291
61,275
61.4,372
61.8,418
62.2,337
62.6,621
63,871
63.4,742
63.8,427
64.2,386
64.6,954
65,644
65.4,383
65.8,513
66.2,282
66.6,245
67,353
67.4,652
67.8,762
68.2,282
68.6,277
69,293
69.4,347
69.8,330
70.2,407
70.6,723
71,797
71.4,333
71.8,321
72.2,432
72.6,594
73,753
73.4,892
73.8,370
74.2,517
74.6,1351
75,478
75.4,270
75.8,316
76.2,310
76.6,427
77,356
77.4,233
77.8,219
78.2,245
78.6,229
79,259
79.4,323
79.8,561
80.2,340
80.6,284
81,280
81.4,307
81.8,266
82.2,340
82.6,224
83,268
83.4,263
83.8,252
84.2,337
84.6,411
85,587
85.4,633
85.8,337
86.2,298
86.6,347
87,289
87.4,402
87.8,353
88.2,453
88.6,457
89,723
89.4,381
89.8,312
90.2,511
90.6,418
91,249
91.4,277
91.8,390
92.2,344
92.6,298
93,300
93.4,409
93.8,425
94.2,319
94.6,386
95,374
95.4,464
95.8,400
96.2,314
96.6,337
97,467
97.4,504
97.8,418
98.2,326
98.6,390
99,439
99.4,543
99.8,601
100.2,471
100.6,494
101,471
101.4,460
101.8,365
102.2,499
102.6,448
103,450
103.4,307
103.8,305
104.2,349
104.6,316
105,386
105.4,344
105.8,444
106.2,478
106.6,587
107,400
107.4,333
107.8,335
108.2,351
108.6,363
109,356
109.4,351
109.8,358
110.2,298
110.6,379
111,386
111.4,524
111.8,545
112.2,635
112.6,554
113,529
113.4,584
113.8,453
114.2,388
114.6,418
115,420
115.4,446
115.8,312
116.2,310
116.6,312
117,379
117.4,425
117.8,418
118.2,388
118.6,464
119,504
119.4,469
119.8,420
120.02,409

File: 00-063-0405 (PD3).csv
5,510
5.4,446
5.8,465
6.2,437
6.6,410
7,310
7.4,318
7.8,282
8.2,300
8.6,240
9,282
9.4,282
9.8,255
10.2,219
10.6,200
11,565
11.4,164
11.8,200
12.2,182
12.6,219
13,109
13.4,128
13.8,164
14.2,228
14.6,200
15,173
15.4,182
15.8,182
16.2,146
16.6,91
17,182
17.4,200
17.8,328
18.2,182
18.6,146
19,128
19.4,146
19.8,173
20.2,109
20.6,146
21,160
21.4,142
21.8,171
22.2,155
22.6,182
23,146
23.4,146
23.8,200
24.2,997
24.6,218
25,319
25.4,164
25.8,157
26.2,188
26.6,219
27,237
27.4,200
27.8,2924
28.2,328
28.6,3633
29,300
29.4,233
29.8,240
30.2,232
30.6,273
31,2460
31.4,547
31.8,410
32.2,3134
32.6,2594
33,4245
33.4,1494
33.8,361
34.2,259
34.6,246
35,324
35.4,651
35.8,2761
36.2,1297
36.6,376
37,292
37.4,266
37.8,278
38.2,223
38.6,392
39,383
39.4,4519
39.8,1348
40.2,346
40.6,683
41,492
41.4,356
41.8,793
42.2,2441
42.6,346
43,421
43.4,911
43.8,1130
44.2,376
44.6,327
45,296
45.4,294
45.8,449
46.2,328
46.6,301
47,410
47.4,1931
47.8,301
48.2,200
48.6,255
49,346
49.4,219
49.8,259
50.2,246
50.6,274
51,465
51.4,237
51.8,292
52.2,1844
52.6,793
53,720
53.4,783
53.8,210
54.2,358
54.6,1020
55,444
55.4,743
55.8,1075
56.2,328
56.6,346
57,573
57.4,1005
57.8,984
58.2,422
58.6,453
59,296
59.4,421
59.8,433
60.2,273
60.6,292
61,492
61.4,392
61.8,237
62.2,374
62.6,510
63,1367
63.4,765
63.8,328
64.2,371
64.6,310
65,783
65.4,357
65.8,348
66.2,884
66.6,455
67,656
67.4,292
67.8,410
68.2,292
68.6,266
69,324
69.4,303
69.8,257
70.2,304
70.6,445
71,456
71.4,637
71.8,475
72.2,697
72.6,565
73,593
73.4,563
73.8,377
74.2,284
74.6,313
75,1039
75.4,492
75.8,410
76.2,428
76.6,537
77,383
77.4,701
77.8,455
78.2,255
78.6,401
79,583
79.4,629
79.8,273
80.2,711
80.6,428
81,445
81.4,621
81.8,556
82.2,420
82.6,383
83,387
83.4,400
83.8,303
84.2,327
84.6,390
85,275
85.4,282
85.8,237
86.2,255
86.6,301
87,282
87.4,419
87.8,328
88.2,428
88.6,273
89,228
89.4,282
89.8,437
90.2,328
90.6,310
91,282
91.4,310
91.8,200
92.2,292
92.6,355
93,264
93.4,346
93.8,292
94.2,455
94.6,446
95,419
95.4,355
95.8,547
96.2,483
96.6,319
97,200
97.4,219
97.8,246
98.2,200
98.6,273
99,364
99.4,310
99.8,328
100.2,364
100.6,255
101,392
101.4,255
101.8,273
102.2,346
102.6,328
103,401
103.4,392
103.8,364
104.2,383
104.6,374
105,437
105.4,483
105.8,401
106.2,364
106.6,292
107,346
107.4,292
107.8,200
108.2,273
108.6,383
109,301
109.4,273
109.8,328
110.2,383
110.6,337
111,364
111.4,392
111.8,282
112.2,656
112.6,510
113,346
113.4,346
113.8,383
114.2,574
114.6,455
115,383
115.4,374
115.8,237
116.2,383
116.6,437
117,528
117.4,492
117.8,364
118.2,246
118.6,401
119,392
119.4,401
119.8,401
119.92,328

File: 00-063-0411 (PD3).csv
5,782
5.4,690
5.8,663
6.2,635
6.6,637
7,627
7.4,560
7.8,538
8.2,515
8.6,523
9,494
9.4,511
9.8,485
10.2,483
10.6,443
11,411
11.4,406
11.8,405
12.2,349
12.6,347
13,359
13.4,351
13.8,344
14.2,299
14.6,283
15,287
15.4,302
15.8,298
16.2,258
16.6,255
17,395
17.4,276
17.8,252
18.2,259
18.6,247
19,221
19.4,233
19.8,257
20.2,253
20.6,219
21,230
21.4,185
21.8,203
22.2,228
22.6,218
23,270
23.4,635
23.8,278
24.2,230
24.6,195
25,239
25.4,369
25.8,225
26.2,253
26.6,346
27,1456
27.4,396
27.8,260
28.2,242
28.6,219
29,223
29.4,208
29.8,300
30.2,295
30.6,246
31,273
31.4,267
31.8,288
32.2,325
32.6,348
33,475
33.4,986
33.8,4303
34.2,5200
34.6,2533
35,793
35.4,1582
35.8,522
36.2,463
36.6,384
37,426
37.4,1399
37.8,440
38.2,399
38.6,554
39,2356
39.4,496
39.8,508
40.2,2209
40.6,538
41,1972
41.4,1300
41.8,500
42.2,439
42.6,467
43,1315
43.4,1229
43.8,464
44.2,422
44.6,457
45,1100
45.4,416
45.8,334
46.2,369
46.6,346
47,356
47.4,358
47.8,358
48.2,394
48.6,357
49,353
49.4,397
49.8,375
50.2,382
50.6,447
51,1233
51.4,455
51.8,474
52.2,762
52.6,526
53,445
53.4,430
53.8,436
54.2,803
54.6,470
55,525
55.4,1038
55.8,739
56.2,896
56.6,1345
57,627
57.4,480
57.8,884
58.2,451
58.6,423
59,747
59.4,503
59.8,736
60.2,715
60.6,752
61,784
61.4,678
61.8,432
62.2,411
62.6,406
63,471
63.4,410
63.8,380
64.2,461
64.6,471
65,413
65.4,427
65.8,449
66.2,689
66.6,1065
67,704
67.4,456
67.8,380
68.2,369
68.6,404
69,544
69.4,489
69.8,486
70.2,456
70.6,566
71,422
71.4,387
71.8,424
72.2,739
72.6,778
73,670
73.4,729
73.8,577
74.2,495
74.6,733
75,512
75.4,634
75.8,535
76.2,423
76.6,501
77,628
77.4,605
77.8,594
78.2,536
78.6,433
79,426
79.4,896
79.8,919
80.2,384
80.6,344
81,306
81.4,400
81.8,602
82.2,417
82.6,342
83,353
83.4,362
83.8,319
84.2,333
84.6,336
85,353
85.4,425
85.8,384
86.2,376
86.6,406
87,535
87.4,383
87.8,398
88.2,409
88.6,464
89,403
89.4,538
89.8,693
90.2,650
90.6,582
91,410
91.4,359
91.8,394
92.2,314
92.6,157
93,403
93.4,455
93.8,446
94.2,417
94.6,434
95,572
95.4,423
95.8,373
96.2,394
96.6,418
97,489
97.4,440
97.8,494
98.2,402
98.6,386
99,374
99.4,435
99.8,493
100.2,585
100.6,507
101,447
101.4,471
101.8,483
102.2,451
102.6,444
103,421
103.4,410
103.8,467
104.2,507
104.6,483
105,509
105.4,449
105.8,541
106.2,486
106.6,442
107,446
107.4,440
107.8,452
108.2,459
108.6,424
109,568
109.4,582
109.8,458
110.2,529
110.6,518
111,502
111.4,507
111.8,452
112.2,674
112.6,623
113,493
113.4,450
113.8,536
114.2,529
114.6,486
115,541
115.4,530
115.8,573
116.2,444
116.6,556
117,564
117.4,508
117.8,601
118.2,550
118.6,483
119,503
119.4,484
119.8,480
120.02,399

File: 00-063-0412 (PD3).csv
5,763
5.4,542
5.8,579
6.2,517
6.6,566
7,517
7.4,462
7.8,443
8.2,405
8.6,419
9,431
9.4,406
9.8,462
10.2,315
10.6,304
11,356
11.4,325
11.8,253
12.2,360
12.6,260
13,235
13.4,243
13.8,219
14.2,263
14.6,264
15,289
15.4,312
15.8,234
16.2,306
16.6,255
17,314
17.4,289
17.8,187
18.2,275
18.6,334
19,263
19.4,354
19.8,345
20.2,369
20.6,292
21,197
21.4,210
21.8,252
22.2,253
22.6,221
23,368
23.4,529
23.8,566
24.2,291
24.6,286
25,368
25.4,295
25.8,379
26.2,345
26.6,451
27,866
27.4,1487
27.8,486
28.2,365
28.6,300
29,434
29.4,387
29.8,477
30.2,517
30.6,347
31,461
31.4,451
31.8,452
32.2,490
32.6,596
33,621
33.4,1032
33.8,4674
34.2,2600
34.6,10020
35,2217
35.4,945
35.8,1658
36.2,748
36.6,664
37,623
37.4,585
37.8,1233
38.2,679
38.6,665
39,1457
39.4,1450
39.8,704
40.2,964
40.6,4358
41,874
41.4,2560
41.8,1075
42.2,779
42.6,663
43,912
43.4,2007
43.8,1320
44.2,726
44.6,653
45,684
45.4,1260
45.8,694
46.2,537
46.6,651
47,589
47.4,596
47.8,642
48.2,673
48.6,684
49,676
49.4,681
49.8,862
50.2,660
50.6,665
51,788
51.4,1255
51.8,750
52.2,878
52.6,1355
53,837
53.4,765
53.8,650
54.2,732
54.6,1228
55,828
55.4,805
55.8,897
56.2,1592
56.6,1301
57,1705
57.4,1341
57.8,824
58.2,733
58.6,871
59,775
59.4,762
59.8,961
60.2,1068
60.6,1106
61,942
61.4,935
61.8,935
62.2,729
62.6,738
63,690
63.4,767
63.8,735
64.2,710
64.6,746
65,789
65.4,759
65.8,737
66.2,753
66.6,849
67,1450
67.4,1236
67.8,894
68.2,761
68.6,674
69,664
69.4,683
69.8,789
70.2,706
70.6,752
71,725
71.4,736
71.8,690
72.2,711
72.6,945
73,1223
73.4,871
73.8,946
74.2,996
74.6,874
75,792
75.4,958
75.8,862
76.2,847
76.6,699
77,740
77.4,783
77.8,797
78.2,1024
78.6,809
79,767
79.4,623
79.8,653
80.2,822
80.6,1083
81,613
81.4,676
81.8,696
82.2,768
82.6,971
83,699
83.4,672
83.8,524
84.2,575
84.6,605
85,536
85.4,560
85.8,643
86.2,726
86.6,582
87,636
87.4,602
87.8,738
88.2,756
88.6,563
89,644
89.4,648
89.8,654
90.2,686
90.6,698
91,793
91.4,735
91.8,776
92.2,667
92.6,654
93,585
93.4,625
93.8,686
94.2,1009
94.6,632
95,650
95.4,607
95.8,644
96.2,651
96.6,505
97,588
97.4,621
97.8,726
98.2,650
98.6,621
99,616
99.4,658
99.8,608
100.2,664
100.6,675
101,613
101.4,755
101.8,742
102.2,715
102.6,759
103,665
103.4,578
103.8,635
104.2,628
104.6,637
105,692
105.4,705
105.8,651
106.2,740
106.6,676
107,715
107.4,677
107.8,659
108.2,683
108.6,706
109,735
109.4,748
109.8,735
110.2,699
110.6,775
111,833
111.4,778
111.8,827
112.2,772
112.6,765
113,803
113.4,763
113.8,779
114.2,815
114.6,849
115,770
115.4,763
115.8,717
116.2,686
116.6,821
117,877
117.4,945
117.8,749
118.2,826
118.6,959
119,898
119.4,750
119.8,801
120.04,798

File: 00-063-0413 (PD3).csv
5,413
5.4,397
5.8,385
6.2,328
6.6,309
7,309
7.4,288
7.8,289
8.2,268
8.6,247
9,236
9.4,258
9.8,268
10.2,237
10.6,191
11,209
11.4,199
11.8,188
12.2,197
12.6,182
13,167
13.4,157
13.8,175
14.2,157
14.6,149
15,124
15.4,138
15.8,137
16.2,138
16.6,130
17,423
17.4,111
17.8,120
18.2,124
18.6,136
19,160
19.4,186
19.8,239
20.2,141
20.6,97
21,122
21.4,95
21.8,144
22.2,120
22.6,127
23,165
23.4,448
23.8,131
24.2,139
24.6,113
25,166
25.4,223
25.8,159
26.2,150
26.6,222
27,979
27.4,289
27.8,258
28.2,175
28.6,149
29,187
29.4,178
29.8,247
30.2,185
30.6,175
31,197
31.4,197
31.8,221
32.2,240
32.6,274
33,334
33.4,928
33.8,6506
34.2,2378
34.6,5856
35,661
35.4,1710
35.8,467
36.2,356
36.6,391
37,316
37.4,1312
37.8,478
38.2,316
38.6,331
39,1186
39.4,392
39.8,391
40.2,1266
40.6,598
41,1670
41.4,3298
41.8,502
42.2,366
42.6,379
43,670
43.4,1852
43.8,385
44.2,350
44.6,338
45,928
45.4,395
45.8,337
46.2,312
46.6,292
47,317
47.4,326
47.8,308
48.2,328
48.6,316
49,314
49.4,344
49.8,343
50.2,290
50.6,366
51,903
51.4,424
51.8,366
52.2,422
52.6,411
53,384
53.4,413
53.8,377
54.2,403
54.6,440
55,401
55.4,516
55.8,825
56.2,654
56.6,1711
57,619
57.4,500
57.8,355
58.2,544
58.6,332
59,443
59.4,465
59.8,539
60.2,983
60.6,526
61,608
61.4,1029
61.8,397
62.2,347
62.6,328
63,359
63.4,306
63.8,303
64.2,368
64.6,360
65,372
65.4,330
65.8,357
66.2,407
66.6,1608
67,856
67.4,407
67.8,326
68.2,261
68.6,294
69,342
69.4,349
69.8,429
70.2,321
70.6,301
71,394
71.4,301
71.8,316
72.2,381
72.6,651
73,571
73.4,605
73.8,578
74.2,392
74.6,322
75,277
75.4,389
75.8,506
76.2,322
76.6,394
77,428
77.4,381
77.8,430
78.2,564
78.6,387
79,309
79.4,429
79.8,995
80.2,475
80.6,214
81,259
81.4,234
81.8,316
82.2,442
82.6,262
83,227
83.4,255
83.8,301
84.2,207
84.6,223
85,277
85.4,209
85.8,238
86.2,252
86.6,153
87,299
87.4,241
87.8,243
88.2,280
88.6,238
89,276
89.4,218
89.8,277
90.2,364
90.6,278
91,307
91.4,264
91.8,222
92.2,236
92.6,213
93,253
93.4,306
93.8,298
94.2,288
94.6,309
95,327
95.4,299
95.8,261
96.2,257
96.6,269
97,279
97.4,295
97.8,277
98.2,247
98.6,389
99,305
99.4,262
99.8,310
100.2,280
100.6,394
101,374
101.4,307
101.8,339
102.2,342
102.6,218
103,247
103.4,242
103.8,268
104.2,352
104.6,400
105,302
105.4,235
105.8,261
106.2,291
106.6,332
107,286
107.4,299
107.8,268
108.2,247
108.6,329
109,323
109.4,363
109.8,380
110.2,360
110.6,301
111,296
111.4,358
111.8,426
112.2,420
112.6,441
113,468
113.4,465
113.8,403
114.2,326
114.6,263
115,259
115.4,310
115.8,320
116.2,289
116.6,273
117,370
117.4,472
117.8,528
118.2,496
118.6,357
119,395
119.4,375
119.8,287
120,317

File: 00-063-0553 (PD3).csv
6,2383
6.36,2336
6.72,2380
7.08,2378
7.44,2164
7.8,2281
8.16,2171
8.52,2095
8.88,2090
9.24,2088
9.6,2248
9.96,2027
10.32,1871
10.68,1827
11.04,2002
11.4,1810
11.76,1911
12.12,1908
12.48,1817
12.84,1785
13.2,1762
13.56,1634
13.92,1697
14.28,1709
14.64,1622
15,1707
15.36,1677
15.72,1731
16.08,1727
16.44,1578
16.8,1672
17.16,1617
17.52,1624
17.88,1598
18.24,1516
18.6,1593
18.96,1585
19.32,2915
19.68,1541
20.04,1469
20.4,1420
20.76,1507
21.12,1470
21.48,1388
21.84,1446
22.2,1401
22.56,1323
22.92,1299
23.28,1278
23.64,1277
24,1286
24.36,1283
24.72,1268
25.08,1225
25.44,1230
25.8,1272
26.16,1206
26.52,1141
26.88,6322
27.24,1121
27.6,1145
27.96,1051
28.32,1140
28.68,1123
29.04,1750
29.4,1189
29.76,1045
30.12,1006
30.48,1087
30.84,1025
31.2,969
31.56,1013
31.92,1296
32.28,5177
32.64,1680
33,1157
33.36,1034
33.72,1079
34.08,969
34.44,1271
34.8,6927
35.16,1112
35.52,1039
35.88,1011
36.24,915
36.6,924
36.96,915
37.32,1139
37.68,2220
38.04,12604
38.4,1163
38.76,993
39.12,2992
39.48,1000
39.84,879
40.2,798
40.56,827
40.92,878
41.28,896
41.64,871
42,894
42.36,1490
42.72,2443
43.08,1096
43.44,1168
43.8,2063
44.16,3798
44.52,915
44.88,887
45.24,811
45.6,805
45.96,710
46.32,723
46.68,729
47.04,736
47.4,738
47.76,768
48.12,1140
48.48,925
48.84,802
49.2,737
49.56,722
49.92,737
50.28,684
50.64,679
51,668
51.36,748
51.72,3821
52.08,769
52.44,711
52.8,626
53.16,658
53.52,729
53.88,660
54.24,698
54.6,914
54.96,606
55.32,637
55.68,678
56.04,683
56.4,674
56.76,632
57.12,748
57.48,854
57.84,3062
58.2,669
58.56,688
58.92,756
59.28,2477
59.64,813
60,698
60.36,1000
60.72,677
61.08,697
61.44,2164
61.8,825
62.16,636
62.52,635
62.88,649
63.24,682
63.6,672
63.96,657
64.32,666
64.68,702
65.04,657
65.4,809
65.76,1724
66.12,961
66.48,681
66.84,654
67.2,668
67.56,927
67.92,2150
68.28,731
68.64,663
69,635
69.36,658
69.72,744
70.08,1371
70.44,1132
70.8,704
71.16,650
71.52,649
71.88,755
72.24,711
72.6,615
72.96,598
73.32,813
73.68,603
74.04,615
74.4,935
74.76,592
75.12,635
75.48,1012
75.84,581
76.2,569
76.56,625
76.92,631
77.28,644
77.64,637
78,612
78.36,751
78.72,695
79.08,663
79.44,768
79.8,606
80.16,823
80.52,723
80.88,707
81.24,2786
81.6,656
81.96,568
82.32,580
82.68,575
83.04,625
83.4,1191
83.76,736
84.12,990
84.48,706
84.84,557
85.2,580
85.56,534
85.92,555
86.28,575
86.64,555
87,621
87.36,764
87.72,627
88.08,700
88.44,2913
88.8,682
89.16,593
89.52,624
89.88,539
90.24,551
90.6,566
90.96,625
91.32,510
91.68,580
92.04,518
92.4,711
92.76,554
93.12,739
93.48,581
93.84,554
94.2,504
94.56,582
94.92,648
95.28,794
95.64,640
96,571
96.36,740
96.72,670
97.08,587
97.44,1172
97.8,655
98.16,757
98.52,828
98.88,580
99.24,543
99.6,468
99.96,493
100.32,596
100.68,517
101.04,678
101.4,561
101.76,538
102.12,937
102.48,926
102.84,546
103.2,536
103.56,549
103.92,484
104.28,543
104.64,478
105,510
105.36,781
105.72,501
106.08,480
106.44,460
106.8,507
107.16,551
107.52,504
107.88,453
108.24,654
108.6,506
108.96,483
109.32,476
109.68,517
110.04,481
110.4,594
110.625,541

File: 00-063-0566 (PD3).csv
13,455
13.42,433
13.84,479
14.26,460
14.68,523
15.1,504
15.52,540
15.94,553
16.36,499
16.78,473
17.2,461
17.62,522
18.04,841
18.46,1312
18.88,510
19.3,456
19.72,723
20.14,477
20.56,595
20.98,507
21.4,415
21.82,429
22.24,431
22.66,417
23.08,469
23.5,492
23.92,463
24.34,381
24.76,413
25.18,408
25.6,408
26.02,416
26.44,416
26.86,461
27.28,433
27.7,388
28.12,367
28.54,380
28.96,374
29.38,373
29.8,362
30.22,372
30.64,423
31.06,381
31.48,376
31.9,414
32.32,413
32.74,360
33.16,385
33.58,423
34,376
34.42,392
34.84,437
35.26,6661
35.68,481
36.1,422
36.52,451
36.94,2838
37.36,420
37.78,419
38.2,362
38.62,370
39.04,353
39.46,347
39.88,391
40.3,456
40.72,582
41.14,404
41.56,383
41.98,423
42.4,584
42.82,6837
43.24,513
43.66,407
44.08,382
44.5,590
44.92,369
45.34,364
45.76,353
46.18,388
46.6,431
47.02,2110
47.44,475
47.86,366
48.28,469
48.7,360
49.12,355
49.54,335
49.96,356
50.38,384
50.8,367
51.22,362
51.64,435
52.06,367
52.48,336
52.9,360
53.32,341
53.74,389
54.16,428
54.58,508
55,381
55.42,372
55.84,538
56.26,382
56.68,1351
57.1,589
57.52,504
57.94,370
58.36,390
58.78,331
59.2,358
59.62,365
60.04,389
60.46,411
60.88,450
61.3,344
61.72,372
62.14,1903
62.56,1067
62.98,362
63.4,427
63.82,360
64.24,336
64.66,371
65.08,556
65.5,1105
65.92,388
66.34,400
66.76,363
67.18,419
67.6,414
68.02,355
68.44,368
68.86,364
69.28,339
69.7,342
70.12,354
70.54,328
70.96,320
71.38,351
71.8,435
72.22,355
72.64,371
73.06,396
73.48,587
73.9,358
74.32,749
74.74,897
75.16,410
75.58,364
76,336
76.42,364
76.84,489
77.26,363
77.68,391
78.1,479
78.52,838
78.94,496
79.36,376
79.78,398
80.2,356
80.62,363
81.04,415
81.46,563
81.88,557
82.3,400
82.72,340
83.14,356
83.56,305
83.98,337
84.4,365
84.82,344
85.24,326
85.66,339
86.08,353
86.5,344
86.92,338
87.34,351
87.76,315
88.18,385
88.6,390
89.02,791
89.44,526
89.86,360
90.28,366
90.7,321
91.12,391
91.54,343
91.96,368
92.38,359
92.8,347
93.22,363
93.64,476
94.06,505
94.48,343
94.9,352
95.32,380
95.74,318
96.16,305
96.58,339
97,463
97.42,435
97.84,342
98.26,391
98.68,371
99.1,366
99.52,379
99.94,375
100.36,363
100.78,361
101.2,297
101.62,375
102.04,375
102.46,379
102.88,382
103.3,358
103.72,371
104.14,607
104.56,473
104.98,453
105.4,561
105.82,439
106.24,429
106.66,341
107.08,360
107.5,357
107.92,355
108.34,354
108.76,442
109.18,781
109.6,824
110.02,596
110.44,431
110.86,391
111.28,358
111.7,362
112.12,487
112.54,539
112.96,443
113.38,419
113.8,370
114.22,362
114.64,341
115.06,327
115.48,351
115.9,356
116.32,380
116.74,351
117.16,318
117.58,315
118,326
118.42,309
118.84,413
119.26,395
119.68,375
120.1,346
120.52,402
120.94,550
121.36,464
121.78,377
122.2,323
122.62,330
123.04,367
123.46,369
123.88,322
124.3,383
124.72,400
125.14,411
125.56,393
125.98,392
126.4,739
126.82,780
127.24,590
127.66,526
128.08,426
128.5,379
128.92,383
129.34,373
129.76,424
130.18,557
130.6,517
131.02,447
131.44,445
131.86,375
132.28,394
132.7,400
133,407

File: 00-063-0587 (PD3).csv
4.9978,2400
5.42221,1650
5.84662,1163
6.27103,984
6.69544,886
7.11985,700
7.54426,632
7.96867,670
8.39308,608
8.81749,688
9.2419,730
9.66631,743
10.09072,881
10.51513,849
10.93954,934
11.36395,977
11.78836,970
12.21277,1025
12.63718,1009
13.06159,936
13.486,880
13.91041,995
14.33482,839
14.75923,848
15.18364,825
15.60805,696
16.03246,751
16.45687,695
16.88128,680
17.30569,674
17.7301,634
18.15451,589
18.57892,602
19.00333,540
19.42774,582
19.85215,607
20.27656,510
20.70097,535
21.12538,480
21.54979,515
21.9742,500
22.39861,463
22.82302,543
23.24743,466
23.67184,451
24.09625,439
24.52066,469
24.94507,475
25.36948,507
25.79389,480
26.2183,527
26.64271,773
27.06712,10022
27.49153,836
27.91594,13036
28.34035,851
28.76476,557
29.18917,510
29.61358,472
30.03799,457
30.4624,464
30.88681,403
31.31122,437
31.73563,402
32.16004,419
32.58445,423
33.00886,537
33.43327,2370
33.85768,1019
34.28209,453
34.7065,387
35.13091,382
35.55532,385
35.97973,409
36.40414,756
36.82855,938
37.25296,465
37.67737,955
38.10178,484
38.52619,346
38.9506,292
39.37501,310
39.79942,380
40.22383,437
40.64824,279
41.07265,279
41.49706,307
41.92147,305
42.34588,265
42.77029,303
43.1947,287
43.61911,264
44.04352,469
44.46793,545
44.89234,269
45.31675,272
45.74116,261
46.16557,301
46.58998,1129
47.01439,492
47.4388,515
47.86321,421
48.28762,299
48.71203,237
49.13644,257
49.56085,241
49.98526,248
50.40967,204
50.83408,214
51.25849,481
51.6829,277
52.10731,248
52.53172,233
52.95613,276
53.38054,409
53.80495,968
54.22936,272
54.65377,262
55.07818,272
55.50259,348
55.927,216
56.35141,235
56.77582,233
57.20023,497
57.62464,437
58.04905,240
58.47346,224
58.89787,257
59.32228,203
59.74669,263
60.1711,564
60.59551,323
61.01992,799
61.44433,832
61.86874,501
62.29315,287
62.71756,234
63.14197,226
63.56638,264
63.99079,522
64.4152,248
64.83961,206
65.26402,241
65.68843,298
66.11284,208
66.53725,240
66.96166,308
67.38607,192
67.81048,160
68.23489,184
68.6593,182
69.08371,288
69.50812,205
69.93253,185
70.35694,225
70.78135,202
71.20576,284
71.63017,225
72.05458,224
72.47899,190
72.9034,201
73.32781,155
73.75222,222
74.17663,335
74.60104,200
75.02545,168
75.44986,146
75.87427,153
76.29868,165
76.72309,207
77.1475,156
77.57191,190
77.99632,197
78.42073,172
78.84514,161
79.26955,164
79.69396,183
80.11837,193
80.54278,199
80.96719,225
81.3916,211
81.81601,153
82.24042,161
82.66483,202
83.08924,164
83.51365,175
83.93806,164
84.36247,182
84.78688,270
85.21129,212
85.6357,223
86.06011,285
86.48452,174
86.90893,174
87.33334,182
87.75775,142
88.18216,148
88.60657,177
89.03098,199
89.45539,190
89.8798,216
90.30421,171
90.72862,182
91.15303,170
91.57744,213
92.00185,204
92.42626,169
92.85067,141
93.27508,148
93.69949,153
94.1239,174
94.54831,182
94.97272,174
95.39713,275
95.82154,257
96.24595,215
96.67036,263
97.09477,220
97.51918,228
97.94359,170
98.368,176
98.79241,181
99.21682,165
99.64123,156
100.066,155
100.49,141
100.914,156
101.339,171
101.763,150
102.188,150
102.6121,138
103.037,146
103.461,131
103.885,149
104.31,138
104.734,157
105.159,174
105.583,157
106.007,171
106.432,182
106.8562,163
107.281,168
107.705,209
108.129,185
108.554,172
108.978,158
109.403,160
109.827,180
110.251,203
110.676,193
111.1003,172
111.525,181
111.949,179
112.374,155
112.798,127
113.222,153
113.647,172
114.071,164
114.496,153
114.92,161
115.3444,181
115.769,139
116.193,174
116.618,162
117.042,158
117.466,200
117.891,188
118.315,189
118.74,174
119.164,194
119.5885,183
120.013,175
120.437,177
120.862,168
121.286,166
121.711,179
122.135,169
122.559,186
122.984,197
123.408,193
123.8326,180
124.257,189
124.681,180
125.106,163
125.53,163
125.955,187
126.379,171
126.803,182
127.228,162
127.652,176
128.0767,194
128.501,170
128.926,168
129.35,187
129.774,164
129.976,0

File: 00-063-0698 (PD3).csv
3,546
3.46,476
3.92,393
4.38,350
4.84,302
5.3,243
5.76,220
6.22,222
6.68,204
7.14,171
7.6,153
8.06,181
8.52,162
8.98,122
9.44,121
9.9,107
10.36,125
10.82,135
11.28,85
11.74,98
12.2,81
12.66,105
13.12,97
13.58,119
14.04,77
14.5,96
14.96,93
15.42,106
15.88,103
16.34,119
16.8,112
17.26,128
17.72,124
18.18,136
18.64,200
19.1,143
19.56,106
20.02,105
20.48,105
20.94,110
21.4,886
21.86,105
22.32,101
22.78,90
23.24,107
23.7,114
24.16,99
24.62,84
25.08,87
25.54,98
26,69
26.46,55
26.92,76
27.38,106
27.84,78
28.3,93
28.76,84
29.22,100
29.68,114
30.14,3665
30.6,3415
31.06,136
31.52,103
31.98,161
32.44,69
32.9,79
33.36,75
33.82,85
34.28,71
34.74,53
35.2,42
35.66,227
36.12,87
36.58,64
37.04,44
37.5,70
37.96,64
38.42,51
38.88,102
39.34,66
39.8,42
40.26,61
40.72,81
41.18,47
41.64,67
42.1,61
42.56,57
43.02,92
43.48,3140
43.94,80
44.4,82
44.86,329
45.32,61
45.78,54
46.24,55
46.7,53
47.16,75
47.62,120
48.08,75
48.54,146
49,335
49.46,70
49.92,338
50.38,85
50.84,48
51.3,56
51.76,62
52.22,56
52.68,72
53.14,70
53.6,1353
54.06,1294
54.52,293
54.98,74
55.44,41
55.9,70
56.36,57
56.82,67
57.28,77
57.74,88
58.2,43
58.66,51
59.12,37
59.58,167
60.04,64
60.5,50
60.96,44
61.42,44
61.88,49
62.34,55
62.8,260
63.26,991
63.72,351
64.18,75
64.64,55
65.1,40
65.56,42
66.02,55
66.48,88
66.94,118
67.4,103
67.86,90
68.32,49
68.78,81
69.24,46
69.7,39
70.16,63
70.62,59
71.08,70
71.54,474
72,942
72.46,120
72.92,101
73.38,55
73.84,50
74.3,52
74.76,38
75.22,60
75.68,71
76.14,67
76.6,87
77.06,61
77.52,64
77.98,36
78.44,30
78.9,39
79.36,208
79.82,49
80.28,162
80.74,133
81.2,71
81.66,46
82.12,40
82.58,68
83.04,99
83.5,66
83.96,149
84.42,68
84.88,42
85.34,49
85.8,51
86.26,50
86.72,53
87.18,214
87.64,470
88.1,456
88.56,466
89.02,71
89.48,53
89.94,89
90.4,69
90.86,77
91.32,59
91.78,65
92.24,80
92.7,51
93.16,70
93.62,54
94.08,52
94.54,44
95,46
95.46,130
95.92,98
96.38,55
96.84,67
97.3,53
97.76,54
98.22,46
98.68,42
99.14,90
99.6,103
100.06,111
100.52,79
100.98,49
101.44,48
101.9,48
102.36,73
102.82,86
103.28,169
103.74,391
104.2,258
104.66,125
105.12,62
105.58,45
106.04,47
106.5,132
106.96,71
107.42,81
107.88,106
108.34,95
108.8,61
109.26,62
109.72,52
110.18,56
110.64,66
111.1,93
111.56,140
112.02,237
112.48,188
112.94,82
113.4,64
113.86,54
114.32,65
114.78,81
115.24,103
115.7,112
116.16,89
116.62,88
117.08,69
117.54,79
118,71
118.46,57
118.92,52
119.38,79
119.84,174
120.3,126
120.76,74
121.22,137
121.68,233
122.14,181
122.6,106
123.06,56
123.52,63
123.98,71
124.44,59
124.9,63
125.36,63
125.82,76
126.28,63
126.74,68
127.2,61
127.66,66
128.12,66
128.58,61
129.04,159
129.5,113
129.96,84
130.42,133
130.88,142
131.34,145
131.8,154
132.26,140
132.72,77
133.18,71
133.64,102
134.1,90
134.56,69
135.02,135
135.48,103
135.94,124
136.4,75
136.86,119
137.32,91
137.78,61
138.24,80
138.7,74
139.16,147
139.62,106
139.98,135