Folder: spectrumdavit/data/xrd_icdd_PDF (part 10)

File: 00-062-0305 (PD3).csv
10,4338
10.28,4616
10.56,4670
10.84,4708
11.12,4554
11.4,4494
11.68,4508
11.96,4510
12.24,4472
12.52,4436
12.8,4506
13.08,4374
13.36,4278
13.64,4298
13.92,4288
14.2,4252
14.48,4418
14.76,4204
15.04,4274
15.32,4078
15.6,4152
15.88,4134
16.16,4154
16.44,4186
16.72,4192
17,4036
17.28,4130
17.56,4014
17.84,4074
18.12,4156
18.4,3992
18.68,3894
18.96,4046
19.24,4002
19.52,4006
19.8,3986
20.08,4032
20.36,4108
20.64,4084
20.92,5122
21.2,12480
21.48,4524
21.76,3946
22.04,3900
22.32,3856
22.6,3782
22.88,3736
23.16,3662
23.44,3742
23.72,3672
24,3692
24.28,4488
24.56,9492
24.84,4042
25.12,3718
25.4,3632
25.68,3666
25.96,3600
26.24,3716
26.52,3508
26.8,3598
27.08,3504
27.36,3508
27.64,3570
27.92,3464
28.2,3330
28.48,3466
28.76,3360
29.04,3378
29.32,3468
29.6,3470
29.88,3482
30.16,3464
30.44,3454
30.72,3422
31,3552
31.28,3422
31.56,3422
31.84,3440
32.12,3482
32.4,3350
32.68,3510
32.96,3442
33.24,3588
33.52,3622
33.8,3436
34.08,3664
34.36,3576
34.64,4142
34.92,8984
35.2,7618
35.48,3870
35.76,3758
36.04,3630
36.32,3578
36.6,3562
36.88,3620
37.16,3518
37.44,3568
37.72,3536
38,3494
38.28,3472
38.56,3598
38.84,3524
39.12,3702
39.4,3466
39.68,3576
39.96,3818
40.24,4084
40.52,4200
40.8,4882
41.08,10434
41.36,59708
41.64,10584
41.92,4944
42.2,4266
42.48,4092
42.76,4444
43.04,7026
43.32,24108
43.6,6286
43.88,4112
44.16,3896
44.44,3746
44.72,3602
45,3558
45.28,3662
45.56,3568
45.84,3534
46.12,3524
46.4,3488
46.68,3534
46.96,3568
47.24,3466
47.52,3400
47.8,3450
48.08,3416
48.36,3434
48.64,3438
48.92,3348
49.2,3484
49.48,3472
49.76,3386
50.04,3610
50.32,4828
50.6,4290
50.88,3550
51.16,3464
51.44,3436
51.72,3446
52,3446
52.28,3574
52.56,3528
52.84,3510
53.12,3400
53.4,3334
53.68,3386
53.96,3316
54.24,3376
54.52,3356
54.8,3422
55.08,3642
55.36,4726
55.64,3552
55.92,3427
56.2,3633
56.48,3473
56.76,4226
57.04,4225
57.32,3534
57.6,3396
57.88,3302
58.16,3302
58.44,3262
58.72,3328
59,3460
59.28,3370
59.56,3396
59.84,3420
60.12,3394
60.4,3312
60.68,3288
60.96,3370
61.24,3386
61.52,3328
61.8,3344
62.08,3498
62.36,3624
62.64,4070
62.92,6310
63.2,4168
63.48,3454
63.76,3370
64.04,3366
64.32,3326
64.6,3406
64.88,3498
65.16,3522
65.44,3530
65.72,3506
66,3494
66.28,3642
66.56,3622
66.84,4590
67.12,11056
67.4,8880
67.68,4280
67.96,3646
68.24,3608
68.52,3428
68.8,3382
69.08,3314
69.36,3426
69.64,3406
69.92,3360
70.2,3454
70.48,3420
70.76,3456
71.04,3398
71.32,3286
71.6,3422
71.88,3274
72.16,3390
72.44,3414
72.72,3466
73,3462
73.28,3560
73.56,3804
73.84,4956
74.12,9878
74.4,6118
74.68,3828
74.96,3642
75.24,3442
75.52,3480
75.8,3364
76.08,3328
76.36,3364
76.64,3316
76.92,3388
77.2,3446
77.48,3468
77.76,3590
78.04,3918
78.32,3690
78.6,3516
78.88,3352
79.16,3402
79.44,3858
79.72,3542
80,3302
80.28,3284
80.56,3378
80.84,3396
81.12,3370
81.4,3370
81.68,3292
81.96,3326
82.24,3372
82.52,3180
82.8,3388
83.08,3162
83.36,3338
83.64,3270
83.92,3356
84.2,3366
84.48,3596
84.76,4026
85.04,3716
85.32,3382
85.6,3350
85.88,3450
86.16,3272
86.44,3394
86.72,3282
87,3292
87.28,3260
87.56,3420
87.84,3404
88.12,3680
88.4,4426
88.68,5456
88.96,4476
89.24,3772
89.52,4014
89.8,5568
89.98,5356

File: 00-062-0348 (PD3).csv
10,120
10.38,118
10.76,116
11.14,114
11.52,105
11.9,104
12.28,118
12.66,114
13.04,102
13.42,104
13.8,88
14.18,98
14.56,91
14.94,94
15.32,96
15.7,98
16.08,81
16.46,99
16.84,98
17.22,90
17.6,76
17.98,76
18.36,90
18.74,90
19.12,85
19.5,82
19.88,72
20.26,81
20.64,82
21.02,80
21.4,77
21.78,61
22.16,74
22.54,68
22.92,59
23.3,56
23.68,58
24.06,55
24.44,556
24.82,60
25.2,40
25.58,42
25.96,34
26.34,36
26.72,39
27.1,42
27.48,36
27.86,34
28.24,42
28.62,26
29,30
29.38,40
29.76,50
30.14,196
30.52,2761
30.9,252
31.28,64
31.66,1046
32.04,37
32.42,28
32.8,28
33.18,316
33.56,46
33.94,26
34.32,30
34.7,22
35.08,14
35.46,19
35.84,14
36.22,15
36.6,12
36.98,20
37.36,17
37.74,64
38.12,478
38.5,226
38.88,20
39.26,19
39.64,14
40.02,13
40.4,11
40.78,12
41.16,16
41.54,32
41.92,91
42.3,14
42.68,17
43.06,12
43.44,14
43.82,16
44.2,20
44.58,22
44.96,50
45.34,1594
45.72,31
46.1,20
46.48,18
46.86,17
47.24,18
47.62,80
48,102
48.38,16
48.76,25
49.14,20
49.52,14
49.9,22
50.28,27
50.66,22
51.04,18
51.42,15
51.8,20
52.18,161
52.56,36
52.94,116
53.32,1811
53.7,52
54.08,33
54.46,26
54.84,30
55.22,74
55.6,1438
55.98,192
56.36,28
56.74,20
57.12,17
57.5,14
57.88,26
58.26,53
58.64,16
59.02,12
59.4,14
59.78,12
60.16,18
60.54,9
60.92,101
61.3,20
61.68,14
62.06,16
62.44,12
62.82,12
63.2,121
63.58,32
63.96,16
64.34,26
64.72,152
65.1,10
65.48,18
65.86,138
66.24,153
66.62,20
67,12
67.38,8
67.76,35
68.14,174
68.52,20
68.9,21
69.28,261
69.66,16
70.04,16
70.42,10
70.8,8
71.18,11
71.56,46
71.94,27
72.32,58
72.7,16
73.08,16
73.46,16
73.84,58
74.22,78
74.6,268
74.98,262
75.36,34
75.74,27
76.12,78
76.5,68
76.88,29
77.26,15
77.64,16
78.02,12
78.4,16
78.78,197
79.16,42
79.54,12
79.92,15
80.3,14
80.68,14
81.06,37
81.44,89
81.82,26
82.2,48
82.58,123
82.96,19
83.34,22
83.72,13
84.1,12
84.48,15
84.86,12
85.24,21
85.62,63
86,61
86.38,26
86.76,194
87.14,31
87.52,19
87.9,16
88.28,15
88.66,20
89.04,35
89.42,79
89.8,396
90.18,70
90.56,21
90.94,51
91.32,45
91.7,166
92.08,37
92.46,15
92.84,16
93.22,18
93.6,27
93.98,22
94.36,21
94.74,22
95.12,98
95.5,74
95.88,16
96.26,29
96.64,14
97.02,11
97.4,12
97.78,16
98.16,16
98.54,32
98.92,21
99.3,54
99.68,74
100.06,30
100.44,25
100.82,86
101.2,40
101.58,13
101.96,16
102.34,26
102.72,45
103.1,27
103.48,18
103.86,84
104.24,44
104.62,16
105,12
105.38,14
105.76,18
106.14,20
106.52,14
106.9,14
107.28,22
107.66,26
108.04,62
108.42,76
108.8,255
109.18,158
109.56,92
109.94,41
110.32,26
110.7,42
111.08,73
111.46,32
111.84,23
112.22,30
112.6,88
112.98,82
113.36,88
113.74,53
114.12,27
114.5,14
114.88,16
115.26,20
115.64,22
116.02,60
116.4,32
116.78,20
117.16,16
117.54,16
117.92,22
118.3,18
118.68,92
119.06,76
119.44,83
119.82,24
120.02,20

File: 00-062-0719 (PD3).csv
10,5214
10.32,4893
10.64,4885
10.96,4719
11.28,4477
11.6,4265
11.92,4543
12.24,4563
12.56,4586
12.88,4359
13.2,4142
13.52,4235
13.84,4160
14.16,3943
14.48,3995
14.8,3891
15.12,3901
15.44,3889
15.76,3721
16.08,3691
16.4,3710
16.72,4284
17.04,3735
17.36,3986
17.68,15013
18,3740
18.32,3651
18.64,3487
18.96,3637
19.28,5839
19.6,3873
19.92,3571
20.24,3691
20.56,3565
20.88,3587
21.2,3388
21.52,3375
21.84,3939
22.16,4103
22.48,6967
22.8,3566
23.12,3505
23.44,3835
23.76,3678
24.08,3719
24.4,21049
24.72,3272
25.04,3611
25.36,3285
25.68,16407
26,3513
26.32,3535
26.64,3204
26.96,3084
27.28,3095
27.6,3221
27.92,3270
28.24,3401
28.56,3527
28.88,3372
29.2,3242
29.52,4996
29.84,24160
30.16,3321
30.48,2981
30.8,3262
31.12,3342
31.44,26405
31.76,3135
32.08,3169
32.4,2992
32.72,7663
33.04,3823
33.36,3211
33.68,11201
34,3837
34.32,8540
34.64,3410
34.96,3934
35.28,28419
35.6,4139
35.92,8444
36.24,2629
36.56,2605
36.88,2869
37.2,3403
37.52,2783
37.84,2790
38.16,3344
38.48,15700
38.8,3635
39.12,3538
39.44,3331
39.76,25965
40.08,3268
40.4,2885
40.72,2719
41.04,2858
41.36,2788
41.68,2827
42,3324
42.32,2929
42.64,3046
42.96,5657
43.28,3101
43.6,2856
43.92,2966
44.24,2913
44.56,2798
44.88,2864
45.2,11485
45.52,8092
45.84,6227
46.16,2804
46.48,3449
46.8,18551
47.12,3230
47.44,2755
47.76,11488
48.08,3305
48.4,2818
48.72,3754
49.04,2737
49.36,2659
49.68,3844
50,4219
50.32,2944
50.64,2802
50.96,2587
51.28,2704
51.6,4036
51.92,4318
52.24,4075
52.56,3161
52.88,9292
53.2,7511
53.52,2589
53.84,3155
54.16,5634
54.48,2988
54.8,6034
55.12,7303
55.44,3255
55.76,5147
56.08,2960
56.4,2704
56.72,2517
57.04,2359
57.36,2328
57.68,2590
58,3102
58.32,2609
58.64,5046
58.96,4140
59.28,2512
59.6,2474
59.92,2355
60.24,2617
60.56,2727
60.88,4310
61.2,3012
61.52,6439
61.84,6789
62.16,3647
62.48,3190
62.8,3303
63.12,7094
63.44,9211
63.76,3748
64.08,3284
64.4,17628
64.72,4122
65.04,3173
65.36,3709
65.68,3649
66,6823
66.32,3126
66.64,4515
66.96,3111
67.28,2907
67.6,2914
67.92,3149
68.24,2960
68.56,3073
68.88,5491
69.2,3058
69.52,4869
69.84,5373
70.16,2873
70.48,2863
70.8,2624
71.12,4016
71.44,4238
71.76,3027
72.08,4621
72.4,6755
72.72,3199
73.04,5516
73.36,5261
73.68,3409
74,4425
74.32,3076
74.64,3095
74.96,2789
75.28,2741
75.6,2543
75.92,2947
76.24,3307
76.56,4695
76.88,3272
77.2,3295
77.52,2757
77.84,2612
78.16,3216
78.48,4032
78.8,3369
79.12,2688
79.44,5471
79.76,5583
80.08,3418
80.4,3929
80.72,4447
81.04,2681
81.36,3058
81.68,2273
82,2619
82.32,2788
82.64,2600
82.96,2440
83.28,3034
83.6,3592
83.92,3456
84.24,4644
84.56,3554
84.88,2516
85.2,2607
85.52,3215
85.84,2755
86.16,3908
86.48,3467
86.8,2623
87.12,2506
87.44,2778
87.76,2488
88.08,2747
88.4,4002
88.72,3447
89.04,2810
89.36,3264
89.68,2900
90,2249
90.32,2240
90.64,2936
90.96,3610
91.28,3179
91.6,3101
91.92,2947
92.24,2409
92.56,2435
92.88,3319
93.2,2991
93.52,3048
93.84,2979
94.16,3132
94.48,3150
94.8,2754
95.12,2420
95.44,3100
95.76,3782
96.08,2817
96.4,2457
96.72,2782
97.04,3925
97.36,3221
97.68,4189
98,3944
98.32,3112
98.64,2380
98.96,4161
99.28,3266
99.6,2628
99.92,2598
100,2434

File: 00-063-0313 (PD3).csv
5,1102
5.4,815
5.8,694
6.2,650
6.6,551
7,540
7.4,507
7.8,419
8.2,430
8.6,430
9,364
9.4,380
9.8,353
10.2,298
10.6,334
11,298
11.4,253
11.8,270
12.2,260
12.6,231
13,226
13.4,176
13.8,198
14.2,209
14.6,209
15,204
15.4,226
15.8,198
16.2,149
16.6,209
17,198
17.4,143
17.8,154
18.2,149
18.6,160
19,198
19.4,160
19.8,121
20.2,132
20.6,231
21,143
21.4,143
21.8,121
22.2,171
22.6,116
23,193
23.4,127
23.8,176
24.2,187
24.6,430
25,176
25.4,165
25.8,143
26.2,160
26.6,143
27,143
27.4,253
27.8,1565
28.2,292
28.6,218
29,153
29.4,248
29.8,1609
30.2,242
30.6,264
31,584
31.4,430
31.8,173
32.2,507
32.6,516
33,501
33.4,1519
33.8,446
34.2,452
34.6,970
35,7235
35.4,2468
35.8,363
36.2,337
36.6,230
37,386
37.4,1300
37.8,1631
38.2,1400
38.6,485
39,380
39.4,204
39.8,132
40.2,209
40.6,231
41,397
41.4,353
41.8,364
42.2,176
42.6,276
43,242
43.4,320
43.8,220
44.2,231
44.6,187
45,209
45.4,198
45.8,325
46.2,193
46.6,287
47,231
47.4,220
47.8,182
48.2,309
48.6,253
49,441
49.4,276
49.8,395
50.2,343
50.6,1311
51,336
51.4,386
51.8,187
52.2,320
52.6,248
53,204
53.4,529
53.8,292
54.2,286
54.6,236
55,276
55.4,639
55.8,490
56.2,474
56.6,452
57,1234
57.4,380
57.8,331
58.2,452
58.6,325
59,391
59.4,700
59.8,463
60.2,209
60.6,231
61,309
61.4,485
61.8,336
62.2,562
62.6,738
63,678
63.4,534
63.8,331
64.2,893
64.6,562
65,441
65.4,364
65.8,242
66.2,242
66.6,369
67,782
67.4,727
67.8,331
68.2,209
68.6,209
69,264
69.4,309
69.8,397
70.2,551
70.6,683
71,331
71.4,220
71.8,375
72.2,430
72.6,694
73,634
73.4,364
73.8,441
74.2,1003
74.6,342
75,276
75.4,226
75.8,220
76.2,331
76.6,331
77,176
77.4,193
77.8,154
78.2,209
78.6,204
79,270
79.4,452
79.8,325
80.2,215
80.6,270
81,242
81.4,242
81.8,292
82.2,209
82.6,242
83,220
83.4,287
83.8,287
84.2,369
84.6,518
85,364
85.4,276
85.8,253
86.2,259
86.6,292
87,287
87.4,309
87.8,380
88.2,419
88.6,424
89,231
89.4,270
89.8,419
90.2,397
90.6,242
91,264
91.4,276
91.8,248
92.2,231
92.6,298
93,364
93.4,375
93.8,386
94.2,276
94.6,375
95,391
95.4,287
95.8,259
96.2,325
96.6,375
97,353
97.4,287
97.8,298
98.2,281
98.6,413
99,375
99.4,408
99.8,529
100.2,562
100.6,364
101,303
101.4,364
101.8,452
102.2,342
102.6,226
103,220
103.4,287
103.8,220
104.2,303
104.6,320
105,358
105.4,364
105.8,435
106.2,331
106.6,248
107,204
107.4,253
107.8,226
108.2,281
108.6,276
109,325
109.4,220
109.8,264
110.2,331
110.6,364
111,512
111.4,463
111.8,353
112.2,397
112.6,397
113,314
113.4,364
113.8,298
114.2,309
114.6,353
115,309
115.4,231
115.8,242
116.2,248
116.6,353
117,298
117.4,320
117.8,364
118.2,320
118.6,347
119,331
119.4,298
119.8,264
120.02,353

File: 00-063-0342 (PD3).csv
20,434
20.33,438
20.66,436
20.99,411
21.32,361
21.65,397
21.98,394
22.31,409
22.64,1084
22.97,813
23.3,461
23.63,1345
23.96,277
24.29,296
24.62,252
24.95,259
25.28,256
25.61,259
25.94,228
26.27,269
26.6,213
26.93,226
27.26,233
27.59,203
27.92,208
28.25,209
28.58,317
28.91,227
29.24,220
29.57,203
29.9,194
30.23,190
30.56,208
30.89,213
31.22,206
31.55,227
31.88,327
32.21,1016
32.54,4353
32.87,3678
33.2,4992
33.53,394
33.86,222
34.19,186
34.52,250
34.85,174
35.18,159
35.51,175
35.84,251
36.17,183
36.5,178
36.83,169
37.16,152
37.49,185
37.82,164
38.15,159
38.48,172
38.81,143
39.14,159
39.47,157
39.8,171
40.13,318
40.46,2314
40.79,402
41.12,164
41.45,178
41.78,164
42.11,163
42.44,149
42.77,186
43.1,149
43.43,216
43.76,128
44.09,140
44.42,147
44.75,128
45.08,130
45.41,145
45.74,192
46.07,379
46.4,1957
46.73,1114
47.06,334
47.39,200
47.72,193
48.05,298
48.38,1587
48.71,206
49.04,164
49.37,131
49.7,124
50.03,115
50.36,153
50.69,127
51.02,135
51.35,122
51.68,132
52.01,167
52.34,480
52.67,464
53,260
53.33,167
53.66,166
53.99,539
54.32,216
54.65,128
54.98,118
55.31,128
55.64,133
55.97,144
56.3,148
56.63,143
56.96,150
57.29,165
57.62,241
57.95,687
58.28,2846
58.61,1043
58.94,349
59.27,949
59.6,1597
59.93,259
60.26,200
60.59,164
60.92,149
61.25,141
61.58,134
61.91,128
62.24,127
62.57,117
62.9,121
63.23,120
63.56,120
63.89,127
64.22,127
64.55,146
64.88,125
65.21,136
65.54,151
65.87,135
66.2,121
66.53,139
66.86,128
67.19,123
67.52,194
67.85,649
68.18,498
68.51,185
68.84,214
69.17,881
69.5,1081
69.83,257
70.16,153
70.49,128
70.82,146
71.15,130
71.48,138
71.81,120
72.14,122
72.47,148
72.8,173
73.13,215
73.46,132
73.79,162
74.12,302
74.45,154
74.78,122
75.11,126
75.44,135
75.77,179
76.1,138
76.43,143
76.76,176
77.09,498
77.42,557
77.75,524
78.08,360
78.41,220
78.74,148
79.07,165
79.4,142
79.73,152
80.06,252
80.39,652
80.72,189
81.05,132
81.38,134
81.71,139
82.04,313
82.37,225
82.7,158
83.03,132
83.36,132
83.69,116
84.02,111
84.35,122
84.68,179
85.01,206
85.34,117
85.67,111
86,114
86.33,115
86.66,116
86.99,133
87.32,204
87.65,714
87.98,383
88.31,139
88.64,129
88.97,117
89.3,123
89.63,116
89.96,109
90.29,124
90.62,161
90.95,145
91.28,129
91.61,123
91.94,155
92.27,131
92.6,149
92.93,130
93.26,139
93.59,182
93.92,200
94.25,143
94.58,122
94.91,161
95.24,251
95.57,524
95.9,486
96.23,456
96.56,566
96.89,438
97.22,256
97.55,168
97.88,225
98.21,811
98.54,505
98.87,182
99.2,125
99.53,107
99.86,108
100.19,112
100.52,115
100.85,106
101.18,115
101.51,102
101.84,95
102.17,118
102.5,121
102.83,123
103.16,103
103.49,108
103.82,178
104.15,191
104.48,141
104.81,134
105.14,185
105.47,144
105.8,114
106.13,119
106.46,121
106.79,111
107.12,113
107.45,114
107.78,110
108.11,122
108.44,122
108.77,128
109.1,159
109.43,135
109.76,216
110.09,227
110.42,161
110.75,145
111.08,138
111.41,122
111.74,121
112.07,200
112.4,158
112.73,145
113.06,138
113.39,226
113.72,344
114.05,337
114.38,278
114.71,249
114.98,115

File: 00-063-0370 (PD3).csv
5.011,3060
5.453,2678
5.89501,2291
6.33701,2129
6.77902,1981
7.22102,1873
7.66303,1742
8.10503,1649
8.54704,1592
8.98904,1630
9.43105,1878
9.87305,1423
10.31506,1392
10.75706,1345
11.19907,1242
11.64107,1176
12.08308,1195
12.52508,1153
12.96709,1125
13.40909,1101
13.8511,1046
14.2931,1070
14.73511,1029
15.17711,1049
15.61912,1001
16.06112,1022
16.50313,945
16.94513,946
17.38714,921
17.82914,931
18.27115,899
18.71315,979
19.15516,900
19.59716,876
20.03917,879
20.48117,844
20.92318,843
21.36518,845
21.80719,901
22.24919,841
22.6912,792
23.1332,795
23.57521,777
24.01721,788
24.45922,780
24.90122,871
25.34323,867
25.78523,5303
26.22724,804
26.66924,750
27.11125,735
27.55325,706
27.99526,836
28.43726,2265
28.87927,755
29.32127,750
29.76328,705
30.20528,812
30.64729,1775
31.08929,825
31.5313,885
31.9733,7683
32.41531,1322
32.85731,812
33.29932,675
33.74132,656
34.18333,633
34.62533,627
35.06734,655
35.50934,638
35.95135,1303
36.39335,774
36.83536,620
37.27736,625
37.71937,576
38.16137,761
38.60338,552
39.04538,568
39.48739,556
39.92939,618
40.3714,581
40.8134,547
41.25541,540
41.69741,511
42.13941,570
42.58142,578
43.02342,575
43.46543,955
43.90743,1472
44.34944,546
44.79144,631
45.23345,581
45.67545,530
46.11746,548
46.55946,512
47.00147,515
47.44347,577
47.88548,659
48.32748,1995
48.76949,1616
49.21149,646
49.6535,3104
50.0955,611
50.53751,578
50.97951,579
51.42152,1704
51.86352,550
52.30553,516
52.74753,587
53.18954,629
53.63154,545
54.07355,521
54.51555,528
54.95756,901
55.39956,3100
55.84157,587
56.28357,514
56.72558,523
57.16758,474
57.60959,559
58.05159,935
58.4936,725
58.9356,600
59.37761,588
59.81961,513
60.26162,523
60.70362,499
61.14563,496
61.58763,495
62.02964,491
62.47164,486
62.91365,476
63.35565,659
63.79766,701
64.23966,516
64.68167,499
65.12367,521
65.56568,496
66.00768,490
66.44969,533
66.89169,698
67.3337,1208
67.7757,686
68.21771,578
68.65971,673
69.10172,537
69.54372,567
69.98573,690
70.42773,517
70.86974,547
71.31174,521
71.75375,592
72.19575,715
72.63776,589
73.07976,1019
73.52177,529
73.96377,508
74.40578,485
74.84778,494
75.28979,974
75.73179,733
76.1738,600
76.6158,553
77.05781,483
77.49981,519
77.94182,771
78.38382,694
78.82582,483
79.26783,514
79.70983,702
80.15184,519
80.59384,474
81.03585,488
81.47785,534
81.91986,599
82.36186,505
82.80387,479
83.24587,537
83.68788,786
84.12988,624
84.57189,974
85.01389,749
85.4559,527
85.8979,640
86.33991,673
86.78191,535
87.22392,501
87.66592,503
88.10793,506
88.54993,500
88.99194,828
89.43394,725
89.87595,534
90.31795,466
90.75996,473
91.20196,532
91.64397,692
92.08597,650
92.52798,499
92.96998,463
93.41199,501
93.85399,463
94.296,507
94.738,435
95.18001,505
95.62201,776
96.06402,633
96.50602,682
96.94803,498
97.39003,530
97.83204,567
98.27404,517
98.71605,494
99.15805,503
99.60006,514
100.042,556
100.484,526
100.926,514
101.368,498
101.81,561
102.252,621
102.694,608
103.1361,585
103.5781,553
104.02,549
104.462,576
104.904,641
105.346,748
105.788,706
106.23,635
106.672,526
107.114,534
107.556,574
107.998,591
108.44,591
108.882,520
109.324,541
109.766,559
110.208,797
110.65,718
111.092,534
111.534,597
111.9762,588
112.4182,639
112.86,659
113.302,559
113.744,551
114.186,606
114.628,599
115.07,528
115.512,557
115.954,581
116.396,675
116.838,625
117.28,618
117.722,666
118.164,577
118.606,533
119.048,551
119.49,502
119.932,510
120.374,579
120.816,541
121.2583,521
121.7003,522
122.142,557
122.584,539
123.026,647
123.468,918
123.91,724
124.352,591
124.794,536
125.236,575
125.678,646
126.12,718
126.562,610
127.004,539
127.446,570
127.888,581
128.33,625
128.772,535
129.214,542
129.656,541
130.0984,548
130.5404,574
130.982,555
131.424,552
131.866,552
132.308,536
132.75,537
133.192,530
133.634,522
134.076,515
134.518,532
134.96,566
134.977,571

File: 00-063-0396 (PD3).csv
5,1018
5.4,891
5.8,933
6.2,721
6.6,664
7,609
7.4,573
7.8,424
8.2,424
8.6,424
9,424
9.4,424
9.8,467
10.2,467
10.6,382
11,425
11.4,397
11.8,355
12.2,406
12.6,370
13,313
13.4,336
13.8,297
14.2,279
14.6,319
15,335
15.4,272
15.8,308
16.2,272
16.6,332
17,266
17.4,297
17.8,321
18.2,236
18.6,211
19,269
19.4,287
19.8,234
20.2,210
20.6,282
21,636
21.4,229
21.8,270
22.2,222
22.6,272
23,226
23.4,237
23.8,424
24.2,213
24.6,247
25,297
25.4,2227
25.8,343
26.2,543
26.6,214
27,275
27.4,228
27.8,196
28.2,217
28.6,274
29,262
29.4,281
29.8,348
30.2,295
30.6,1061
31,325
31.4,266
31.8,253
32.2,342
32.6,353
33,850
33.4,960
33.8,11284
34.2,3669
34.6,2163
35,518
35.4,594
35.8,551
36.2,4263
36.6,445
37,320
37.4,334
37.8,404
38.2,1145
38.6,3181
39,2927
39.4,661
39.8,370
40.2,368
40.6,310
41,352
41.4,314
41.8,413
42.2,2609
42.6,653
43,1175
43.4,511
43.8,348
44.2,366
44.6,295
45,327
45.4,337
45.8,307
46.2,287
46.6,463
47,380
47.4,348
47.8,366
48.2,428
48.6,848
49,319
49.4,360
49.8,422
50.2,320
50.6,456
51,382
51.4,401
51.8,721
52.2,1082
52.6,363
53,386
53.4,522
53.8,460
54.2,315
54.6,320
55,706
55.4,489
55.8,791
56.2,656
56.6,439
57,1188
57.4,1018
57.8,706
58.2,506
58.6,1280
59,1115
59.4,706
59.8,589
60.2,370
60.6,323
61,290
61.4,322
61.8,459
62.2,633
62.6,344
63,443
63.4,378
63.8,368
64.2,575
64.6,357
65,368
65.4,1041
65.8,848
66.2,413
66.6,417
67,490
67.4,301
67.8,359
68.2,398
68.6,328
69,329
69.4,369
69.8,618
70.2,397
70.6,299
71,600
71.4,1824
71.8,427
72.2,363
72.6,308
73,554
73.4,634
73.8,407
74.2,392
74.6,525
75,417
75.4,758
75.8,462
76.2,574
76.6,708
77,539
77.4,317
77.8,326
78.2,402
78.6,870
79,467
79.4,310
79.8,295
80.2,315
80.6,299
81,229
81.4,213
81.8,276
82.2,290
82.6,348
83,255
83.4,294
83.8,335
84.2,307
84.6,273
85,308
85.4,232
85.8,319
86.2,308
86.6,272
87,369
87.4,290
87.8,305
88.2,806
88.6,785
89,510
89.4,354
89.8,313
90.2,254
90.6,288
91,271
91.4,319
91.8,277
92.2,467
92.6,509
93,329
93.4,411
93.8,509
94.2,582
94.6,484
95,424
95.4,297
95.8,318
96.2,297
96.6,382
97,467
97.4,382
97.8,403
98.2,339
98.6,424
99,424
99.4,409
99.8,382
100.2,933
100.6,424
101,355
101.4,355
101.8,382
102.2,403
102.6,488
103,339
103.4,315
103.8,328
104.2,394
104.6,489
105,368
105.4,318
105.8,382
106.2,382
106.6,339
107,376
107.4,424
107.8,434
108.2,390
108.6,298
109,317
109.4,594
109.8,933
110.2,580
110.6,632
111,509
111.4,360
111.8,294
112.2,370
112.6,319
113,373
113.4,329
113.8,424
114.2,339
114.6,355
115,395
115.4,458
115.8,392
116.2,328
116.6,433
117,409
117.4,414
117.8,432
118.2,418
118.6,311
119,385
119.4,276
119.8,371
120.04,284

File: 00-063-0398 (PD3).csv
5,619
5.4,564
5.8,554
6.2,517
6.6,530
7,534
7.4,471
7.8,485
8.2,450
8.6,464
9,446
9.4,398
9.8,381
10.2,385
10.6,356
11,348
11.4,368
11.8,337
12.2,381
12.6,392
13,328
13.4,324
13.8,327
14.2,281
14.6,305
15,264
15.4,287
15.8,294
16.2,266
16.6,243
17,329
17.4,293
17.8,293
18.2,259
18.6,293
19,267
19.4,225
19.8,252
20.2,227
20.6,243
21,312
21.4,345
21.8,224
22.2,249
22.6,230
23,347
23.4,269
23.8,1350
24.2,304
24.6,229
25,268
25.4,519
25.8,658
26.2,658
26.6,267
27,242
27.4,217
27.8,246
28.2,221
28.6,264
29,271
29.4,251
29.8,260
30.2,260
30.6,450
31,346
31.4,233
31.8,267
32.2,262
32.6,345
33,424
33.4,2285
33.8,1316
34.2,9140
34.6,11390
35,1027
35.4,454
35.8,1835
36.2,658
36.6,1973
37,365
37.4,309
37.8,381
38.2,496
38.6,5072
39,1004
39.4,5539
39.8,673
40.2,374
40.6,349
41,300
41.4,349
41.8,355
42.2,589
42.6,2320
43,928
43.4,1754
43.8,379
44.2,316
44.6,336
45,274
45.4,331
45.8,288
46.2,338
46.6,324
47,546
47.4,388
47.8,320
48.2,332
48.6,454
49,866
49.4,309
49.8,330
50.2,401
50.6,382
51,470
51.4,327
51.8,413
52.2,866
52.6,1246
53,381
53.4,367
53.8,464
54.2,485
54.6,373
55,379
55.4,623
55.8,574
56.2,1125
56.6,894
57,404
57.4,1021
57.8,1869
58.2,1212
58.6,436
59,1924
59.4,1895
59.8,753
60.2,494
60.6,379
61,324
61.4,314
61.8,323
62.2,438
62.6,738
63,405
63.4,414
63.8,453
64.2,485
64.6,831
65,397
65.4,362
65.8,526
66.2,1800
66.6,743
67,437
67.4,566
67.8,372
68.2,367
68.6,579
69,367
69.4,492
69.8,374
70.2,827
70.6,448
71,338
71.4,479
71.8,1593
72.2,487
72.6,350
73,392
73.4,727
73.8,762
74.2,589
74.6,371
75,692
75.4,502
75.8,913
76.2,680
76.6,500
77,762
77.4,779
77.8,553
78.2,350
78.6,351
79,640
79.4,1004
79.8,391
80.2,411
80.6,381
81,355
81.4,309
81.8,322
82.2,335
82.6,315
83,464
83.4,365
83.8,366
84.2,479
84.6,472
85,398
85.4,371
85.8,335
86.2,343
86.6,357
87,390
87.4,394
87.8,424
88.2,340
88.6,367
89,750
89.4,539
89.8,549
90.2,400
90.6,368
91,364
91.4,322
91.8,406
92.2,382
92.6,381
93,675
93.4,415
93.8,381
94.2,480
94.6,631
95,684
95.4,560
95.8,398
96.2,340
96.6,362
97,393
97.4,413
97.8,545
98.2,555
98.6,506
99,453
99.4,361
99.8,475
100.2,549
100.6,497
101,1333
101.4,900
101.8,397
102.2,421
102.6,407
103,410
103.4,588
103.8,471
104.2,353
104.6,382
105,495
105.4,693
105.8,547
106.2,399
106.6,386
107,444
107.4,472
107.8,455
108.2,459
108.6,467
109,441
109.4,386
109.8,386
110.2,396
110.6,831
111,883
111.4,710
111.8,692
112.2,500
112.6,386
113,380
113.4,380
113.8,414
114.2,381
114.6,379
115,488
115.4,469
115.8,416
116.2,623
116.6,589
117,523
117.4,485
117.8,381
118.2,463
118.6,446
119,366
119.4,404
119.8,446
120.02,380

File: 00-063-0399 (PD3).csv
5,401
5.4,397
5.8,364
6.2,386
6.6,307
7,378
7.4,348
7.8,278
8.2,283
8.6,286
9,236
9.4,236
9.8,260
10.2,229
10.6,225
11,265
11.4,195
11.8,236
12.2,177
12.6,236
13,189
13.4,217
13.8,165
14.2,165
14.6,142
15,154
15.4,154
15.8,201
16.2,142
16.6,154
17,331
17.4,131
17.8,175
18.2,152
18.6,120
19,121
19.4,165
19.8,118
20.2,165
20.6,155
21,106
21.4,874
21.8,130
22.2,130
22.6,142
23,142
23.4,142
23.8,283
24.2,165
24.6,142
25,118
25.4,213
25.8,2008
26.2,260
26.6,319
27,130
27.4,189
27.8,142
28.2,154
28.6,145
29,104
29.4,125
29.8,142
30.2,278
30.6,165
31,1618
31.4,196
31.8,172
32.2,138
32.6,145
33,230
33.4,292
33.8,1335
34.2,3236
34.6,5541
35,3047
35.4,520
35.8,260
36.2,1181
36.6,898
37,753
37.4,239
37.8,165
38.2,203
38.6,378
39,15802
39.4,555
39.8,6082
40.2,460
40.6,222
41,180
41.4,180
41.8,169
42.2,181
42.6,425
43,1594
43.4,947
43.8,442
44.2,227
44.6,165
45,179
45.4,189
45.8,236
46.2,165
46.6,213
47,189
47.4,461
47.8,236
48.2,233
48.6,195
49,316
49.4,2279
49.8,189
50.2,142
50.6,142
51,283
51.4,262
51.8,181
52.2,236
52.6,402
53,1937
53.4,283
53.8,189
54.2,142
54.6,850
55,240
55.4,236
55.8,260
56.2,850
56.6,1134
57,496
57.4,260
57.8,260
58.2,2764
58.6,2433
59,295
59.4,369
59.8,2338
60.2,378
60.6,449
61,165
61.4,177
61.8,213
62.2,165
62.6,236
63,425
63.4,591
63.8,201
64.2,402
64.6,685
65,213
65.4,898
65.8,213
66.2,283
66.6,673
67,1299
67.4,472
67.8,591
68.2,201
68.6,165
69,189
69.4,425
69.8,142
70.2,390
70.6,319
71,496
71.4,260
71.8,201
72.2,567
72.6,1878
73,331
73.4,189
73.8,378
74.2,1205
74.6,331
75,567
75.4,201
75.8,496
76.2,354
76.6,1110
77,531
77.4,214
77.8,614
78.2,425
78.6,354
79,224
79.4,331
79.8,661
80.2,886
80.6,224
81,260
81.4,165
81.8,189
82.2,142
82.6,213
83,94
83.4,201
83.8,189
84.2,331
84.6,201
85,331
85.4,449
85.8,307
86.2,307
86.6,165
87,118
87.4,142
87.8,350
88.2,189
88.6,272
89,213
89.4,260
89.8,236
90.2,402
90.6,543
91,496
91.4,260
91.8,201
92.2,165
92.6,165
93,189
93.4,189
93.8,402
94.2,555
94.6,472
95,189
95.4,232
95.8,454
96.2,429
96.6,402
97,283
97.4,248
97.8,260
98.2,165
98.6,283
99,509
99.4,283
99.8,354
100.2,213
100.6,236
101,224
101.4,520
101.8,331
102.2,874
102.6,543
103,295
103.4,165
103.8,165
104.2,591
104.6,543
105,319
105.4,189
105.8,283
106.2,342
106.6,626
107,520
107.4,224
107.8,165
108.2,236
108.6,709
109,390
109.4,331
109.8,283
110.2,189
110.6,248
111,260
111.4,224
111.8,354
112.2,850
112.6,827
113,425
113.4,425
113.8,260
114.2,154
114.6,130
115,177
115.4,189
115.8,189
116.2,254
116.6,349
117,295
117.4,236
117.8,342
118.2,295
118.6,283
119,378
119.4,378
119.8,307
120.04,189