Folder: spectrumdavit/data/xrd_icdd_PDF (part 14)

File: 00-066-0133 (PD3).csv
20,2516.6
20.17992,2513.3
20.35984,2520.1
20.53975,2486.4
20.71967,2494.9
20.89959,2736.5
21.07951,3672.4
21.25943,2702.4
21.43934,3096
21.61926,2761.6
21.79918,2537.9
21.9791,2494.4
22.15902,2527
22.33894,2469.2
22.51885,2480.8
22.69877,2513.1
22.87869,2527.7
23.05861,2557.8
23.23853,2536.7
23.41844,2512.1
23.59836,2495.2
23.77828,2526.6
23.9582,2497.5
24.13812,2539.2
24.31803,2511
24.49795,2538.5
24.67787,2537.4
24.85779,2562.2
25.03771,2554.1
25.21762,2530.2
25.39754,2539.1
25.57746,2554.7
25.75738,2516.6
25.9373,2522.1
26.11722,2537.5
26.29713,2571.5
26.47705,2574.8
26.65697,2588.7
26.83689,2703.6
27.01681,3536.7
27.19672,2797.7
27.37664,2644.2
27.55656,2580.3
27.73648,2604.5
27.9164,2561
28.09631,2586
28.27623,2587.9
28.45615,2540.9
28.63607,2595.8
28.81599,2592.2
28.99591,2585.8
29.17582,2584.2
29.35574,2625.8
29.53566,2626.5
29.71558,2623.6
29.8955,2641.1
30.07541,2601.5
30.25533,2638
30.43525,2655.5
30.61517,2664.8
30.79509,2709.3
30.975,2710.7
31.15492,2855.7
31.33484,3697.9
31.51476,13467.3
31.69468,12636.8
31.87459,3411
32.05451,3000.9
32.23443,2889.1
32.41435,2991.3
32.59427,5519.5
32.77419,21572
32.9541,4215
33.13402,3119.7
33.31394,2896.9
33.49386,2928.5
33.67378,3401.7
33.85369,12335.8
34.03361,17513.2
34.21353,3940.1
34.39345,3189.3
34.57337,2972.7
34.75328,2859.4
34.9332,2826.2
35.11312,2868.5
35.29304,2974.5
35.47296,3282.2
35.65287,4272.2
35.83279,12923.3
36.01271,43896.5
36.19263,7820
36.37255,4474.6
36.55247,3743.1
36.73238,3572.7
36.9123,7604.1
37.09222,12859.3
37.27214,3761.4
37.45206,3067.7
37.63197,2851.9
37.81189,2775.5
37.99181,2703.9
38.17173,2692.5
38.35165,2672.4
38.53156,2661
38.71148,2669.7
38.8914,2681.2
39.07132,2644.3
39.25124,2649.3
39.43115,2706
39.61107,2747.8
39.79099,2671.7
39.97091,2621.1
40.15083,2657.5
40.33075,2688.8
40.51066,2647.8
40.69058,2652.9
40.8705,2647
41.05042,2626
41.23034,2660.8
41.41025,2665.7
41.59017,2638.2
41.77009,2676.6
41.95001,2664.7
42.12993,2714.7
42.30984,2735.1
42.48976,2680.5
42.66968,2661.4
42.8496,2664.2
43.02952,2633.3
43.20943,2660
43.38935,2667.4
43.56927,2637.7
43.74919,2635.4
43.92911,2637.3
44.10903,2656.6
44.28894,2728.8
44.46886,2983.5
44.64878,2735
44.8287,2615.1
45.00862,2630.7
45.18853,2616.3
45.36845,2671.5
45.54837,2617.3
45.72829,2614.2
45.90821,2637.7
46.08812,2651.6
46.26804,2670.6
46.44796,2672.2
46.62788,2777
46.8078,3113.8
46.98772,6751.4
47.16763,6273.1
47.34755,3135
47.52747,3035.4
47.70739,3702.4
47.88731,8306.4
48.06722,4261.1
48.24714,2942.6
48.42706,2733.6
48.60698,2695.6
48.7869,2684.6
48.96681,2624.6
49.14673,2647.2
49.32665,2635.2
49.50657,2635.1
49.68649,2630
49.8664,2683.6
50.04632,2722.5
50.22624,2654.8
50.40616,2650.3
50.58608,2639.6
50.766,2629.5
50.94591,2663.6
51.12583,2689.4
51.30575,2657.2
51.48567,2678.4
51.66559,2638.2
51.8455,2653.6
52.02542,2628.2
52.20534,2672.5
52.38526,2644.2
52.56518,2672.9
52.74509,2648.5
52.92501,2633.9
53.10493,2695.9
53.28485,2919.3
53.46477,2892.9
53.64468,2715.1
53.8246,2801.2
54.00452,2782.3
54.18444,2701
54.36436,2701.4
54.54428,2680.6
54.72419,2693.6
54.90411,2801.5
55.08403,3227.1
55.26395,3358.5
55.44387,6747.9
55.62378,6527.8
55.8037,3215.7
55.98362,2826
56.16354,2782.1
56.34346,2817.1
56.52337,2840.9
56.70329,2849.7
56.88321,2845.6
57.06313,2814.7
57.24305,2856.2
57.42296,3229.3
57.60288,5321.4
57.7828,9255.1
57.96272,5161.4
58.14264,3265.5
58.32256,2977.8
58.50247,2852.8
58.68239,2794.2
58.86231,2739.3
59.04223,2734
59.22215,2753.6
59.40206,2724.5
59.58198,2738.1
59.7619,2709.8
59.94182,2762.4
60.12174,2752.8
60.30165,2801.3
60.48157,3045.1
60.66149,3142.8
60.84141,2866.1
61.02133,2820.1
61.20124,2859.3
61.38116,2885.5
61.56108,2915.8
61.741,3268.8
61.92092,5251.9
62.10084,10020
62.28075,6476.9
62.46067,3655
62.64059,4096
62.82051,4961.6
63.00043,3778.6
63.18034,3042.8
63.36026,2866.6
63.54018,2885.4
63.7201,2829.1
63.90002,2785.7
64.07993,2783.5
64.25985,2739.3
64.43977,2770.2
64.61969,2801.6
64.79961,2889.2
64.97952,2788.5
65.15944,2771.7
65.33936,2757.8
65.51928,2821.9
65.6992,2984.5
65.87912,3956.7
66.05903,3980.8
66.23895,3363.1
66.41887,3218.9
66.59879,4960
66.77871,4859.8
66.95862,3583.7
67.13854,2926.6
67.31846,2830.2
67.49838,2796.5
67.6783,2812.6
67.85821,2826.4
68.03813,2966.9
68.21805,3156.5
68.39797,3729.9
68.57789,7901.3
68.75781,7748.3
68.93772,5164.2
69.11764,3496.5
69.29756,3085.4
69.47748,2889.3
69.6574,2796.2
69.83731,2760.2
69.97725,2726.8

File: 00-066-0216 (PD3).csv
8,2178
8.31001,2166
8.62001,2159
8.93002,2178
9.24003,2223
9.55003,2193
9.86004,2153
10.17005,2162
10.48005,2190
10.79006,2170
11.10007,2100
11.41008,2161
11.72008,2104
12.03009,2104
12.3401,2085
12.6501,2086
12.96011,2078
13.27012,2125
13.58012,2079
13.89013,2026
14.20014,2015
14.51014,2045
14.82015,2058
15.13016,2033
15.44016,2009
15.75017,2014
16.06018,1979
16.37018,2012
16.68019,2011
16.9902,2038
17.3002,2219
17.61021,2038
17.92022,1954
18.23023,2000
18.54023,1943
18.85024,1950
19.16025,1977
19.47025,1970
19.78026,1887
20.09027,1902
20.40027,1882
20.71028,1879
21.02029,1917
21.33029,2107
21.6403,1909
21.95031,1856
22.26031,1778
22.57032,1686
22.88033,1714
23.19033,1698
23.50034,1707
23.81035,1678
24.12035,1626
24.43036,1622
24.74037,1613
25.05038,1601
25.36038,1607
25.67039,1578
25.9804,1604
26.2904,1651
26.60041,1834
26.91042,4283
27.22042,15031
27.53043,1952
27.84044,1697
28.15044,1611
28.46045,1576
28.77046,1507
29.08046,1499
29.39047,1482
29.70048,1452
30.01048,1475
30.32049,1445
30.6305,1453
30.9405,1442
31.25051,1422
31.56052,1423
31.87053,1388
32.18053,1396
32.49054,1366
32.80055,1356
33.11055,1355
33.42056,1349
33.73057,1360
34.04057,1372
34.35058,1356
34.66059,1354
34.97059,1366
35.2806,1412
35.59061,1376
35.90061,1455
36.21062,1564
36.52063,1366
36.83063,1322
37.14064,1316
37.45065,1291
37.76065,1329
38.07066,1314
38.38067,1303
38.69068,1329
39.00068,1308
39.31069,1289
39.6207,1295
39.9307,1268
40.24071,1291
40.55072,1258
40.86072,1262
41.17073,1294
41.48074,1269
41.79074,1292
42.10075,1275
42.41076,1280
42.72076,1377
43.03077,1310
43.34078,1281
43.65078,1274
43.96079,1290
44.2708,1348
44.5808,1566
44.89081,5148
45.20082,3391
45.51083,1554
45.82083,1304
46.13084,1278
46.44085,1255
46.75085,1260
47.06086,1243
47.37087,1230
47.68087,1220
47.99088,1236
48.30089,1240
48.61089,1305
48.9209,1237
49.23091,1213
49.54091,1233
49.85092,1214
50.16093,1221
50.47093,1189
50.78094,1226
51.09095,1190
51.40095,1220
51.71096,1231
52.02097,1245
52.33098,1245
52.64098,1307
52.95099,1517
53.261,5743
53.571,2141
53.88101,1381
54.19102,1267
54.50102,1216
54.81103,1196
55.12104,1183
55.43104,1173
55.74105,1202
56.05106,1179
56.36106,1156
56.67107,1153
56.98108,1162
57.29108,1162
57.60109,1168
57.9111,1149
58.2211,1174
58.53111,1155
58.84112,1175
59.15113,1168
59.46113,1137
59.77114,1141
60.08115,1141
60.39115,1131
60.70116,1176
61.01117,1143
61.32117,1169
61.63118,1134
61.94119,1167
62.25119,1121
62.5612,1151
62.87121,1140
63.18121,1181
63.49122,1156
63.80123,1246
64.11123,1168
64.42124,1152
64.73125,1172
65.04125,1198
65.35126,1475
65.66127,1822
65.97128,1226
66.28128,1177
66.59129,1168
66.9013,1140
67.2113,1137
67.52131,1150
67.83132,1162
68.14132,1174
68.45133,1215
68.76134,1153
69.07134,1159
69.38135,1154
69.69136,1139
70.00136,1152
70.31137,1172
70.62138,1146
70.93138,1170
71.24139,1167
71.5514,1197
71.8614,1275
72.17141,2077
72.48142,1877
72.79143,1313
73.10143,1207
73.41144,1181
73.72145,1169
74.03145,1169
74.34146,1150
74.65147,1161
74.96147,1150
75.27148,1147
75.58149,1183
75.89149,1167
76.2015,1170
76.51151,1152
76.82151,1176
77.13152,1171
77.44153,1181
77.75153,1153
78.06154,1161
78.37155,1146
78.68155,1185
78.99156,1150
79.30157,1149
79.61158,1156
79.92158,1148
80.23159,1143
80.5416,1188
80.8516,1176
81.16161,1190
81.47162,1239
81.78162,1201
82.09163,1178
82.40164,1248
82.71164,1398
83.02165,3763
83.33166,1698
83.64166,1286
83.95167,1256
84.26168,1203
84.57168,1187
84.88169,1197
85.1917,1187
85.50171,1222
85.81171,1203
86.12172,1196
86.43173,1180
86.74173,1176
87.05174,1183
87.36175,1186
87.67175,1170
87.98176,1185
88.29177,1190
88.60177,1243
88.91178,1275
89.22179,2072
89.53179,1792
89.8418,1296
90.15181,1197
90.46181,1197
90.77182,1182
91.08183,1156
91.39183,1165
91.70184,1174
92.01185,1154
92.32186,1175
92.63186,1158
92.94187,1185
93.25188,1154
93.56188,1190
93.87189,1201
94.1819,1198
94.4919,1175
94.80191,1172
95.11192,1168
95.42192,1152
95.73193,1147
96.04194,1189
96.35194,1172
96.66195,1168
96.97196,1184
97.28196,1158
97.59197,1176
97.90198,1180
98.21198,1205
98.52199,1183
98.832,1182
99.14201,1206
99.45201,1242
99.76202,1690
100.002,1794

File: 00-066-0336 (PD3).csv
4.9978,4231
5.42222,2636
5.84663,2010
6.27105,1527
6.69547,1261
7.11988,1106
7.5443,1009
7.96871,949
8.39313,860
8.81755,804
9.24196,805
9.66638,797
10.0908,790
10.51521,712
10.93963,758
11.36404,755
11.78846,741
12.21288,771
12.63729,730
13.06171,716
13.48613,750
13.91054,702
14.33496,694
14.75937,707
15.18379,693
15.60821,592
16.03262,666
16.45704,680
16.88146,661
17.30587,711
17.73029,612
18.15471,699
18.57912,627
19.00354,633
19.42795,700
19.85237,695
20.27679,666
20.7012,721
21.12562,927
21.55004,2365
21.97445,982
22.39887,1077
22.82328,3022
23.2477,674
23.67212,625
24.09653,628
24.52095,572
24.94537,571
25.36978,621
25.7942,572
26.21861,534
26.64303,565
27.06745,565
27.49186,584
27.91628,545
28.3407,723
28.76511,633
29.18953,662
29.61395,603
30.03836,604
30.46278,702
30.88719,944
31.31161,5860
31.73603,3617
32.16044,2813
32.58486,1535
33.00928,666
33.43369,630
33.85811,555
34.28252,560
34.70694,555
35.13136,607
35.55577,540
35.98019,543
36.40461,574
36.82902,511
37.25344,506
37.67786,508
38.10227,580
38.52669,581
38.9511,1435
39.37552,2196
39.79994,637
40.22435,526
40.64877,499
41.07319,473
41.4976,487
41.92202,505
42.34643,499
42.77085,501
43.19527,555
43.61968,1025
44.0441,961
44.46852,606
44.89293,540
45.31735,562
45.74176,610
46.16618,1321
46.5906,2073
47.01501,580
47.43943,526
47.86385,511
48.28826,464
48.71268,537
49.1371,513
49.56151,809
49.98593,1109
50.41034,678
50.83476,556
51.25918,632
51.68359,1401
52.10801,957
52.53243,777
52.95684,496
53.38126,544
53.80567,486
54.23009,477
54.65451,463
55.07892,862
55.50334,1737
55.92776,958
56.35217,680
56.77659,971
57.201,3930
57.62542,849
58.04984,501
58.47425,487
58.89867,477
59.32309,464
59.7475,481
60.17192,518
60.59634,460
61.02075,447
61.44517,433
61.86958,445
62.294,415
62.71842,415
63.14283,412
63.56725,448
63.99167,480
64.41608,445
64.8405,485
65.26491,628
65.68933,1288
66.11375,822
66.53816,558
66.96258,496
67.387,600
67.81141,988
68.23583,567
68.66025,505
69.08466,426
69.50908,423
69.93349,508
70.35791,860
70.78233,775
71.20674,521
71.63116,566
72.05558,871
72.47999,840
72.90441,734
73.32882,617
73.75324,519
74.17766,450
74.60207,437
75.02649,420
75.45091,446
75.87532,472
76.29974,670
76.72415,1022
77.14857,1099
77.57299,628
77.9974,506
78.42182,463
78.84624,439
79.27065,429
79.69507,425
80.11949,492
80.5439,459
80.96832,731
81.39273,764
81.81715,494
82.24157,429
82.66598,418
83.0904,443
83.51482,459
83.93923,591
84.36365,795
84.78806,558
85.21248,477
85.6369,426
86.06131,507
86.48573,534
86.91015,463
87.33456,467
87.75898,439
88.18339,446
88.60781,557
89.03223,518
89.45664,445
89.88106,474
90.30548,671
90.72989,866
91.15431,732
91.57873,568
92.00314,528
92.42756,512
92.85197,726
93.27639,906
93.70081,624
94.12522,667
94.54964,952
94.97406,711
95.39847,482
95.82289,443
96.2473,451
96.67172,395
97.09614,415
97.52055,425
97.94497,451
98.36939,397
98.7938,409
99.21822,415
99.64263,420
100.067,413
100.491,419
100.916,537
101.3403,488
101.765,473
102.189,436
102.614,442
103.038,482
103.462,501
103.8868,594
104.311,633
104.736,572
105.16,577
105.584,534
106.009,544
106.4333,566
106.858,606
107.282,556
107.707,501
108.131,572
108.555,643
108.98,656
109.404,577
109.829,529
110.253,499
110.677,489
111.102,461
111.526,470
111.951,488
112.375,609
112.8,701
113.224,865
113.648,750
114.073,632
114.497,594
114.922,508
115.346,531
115.77,525
116.195,504
116.619,483
117.0437,509
117.468,503
117.893,505
118.317,522
118.741,539
119.166,511
119.5902,550
120.015,543
120.439,552
120.863,601
121.288,662
121.712,645
122.1367,610
122.561,601
122.986,557
123.41,655
123.834,636
124.259,652
124.6832,540
125.108,466
125.532,485
125.956,508
126.381,581
126.805,590
127.23,557
127.654,599
128.079,542
128.503,607
128.927,660
129.352,655
129.776,698
129.9783,676

File: 00-066-0496 (PD3).csv
5,97
5.4,93
5.8,79
6.2,62
6.6,64
7,82
7.4,52
7.8,98
8.2,63
8.6,63
9,56
9.4,94
9.8,78
10.2,60
10.6,77
11,54
11.4,62
11.8,91
12.2,86
12.6,65
13,67
13.4,56
13.8,63
14.2,54
14.6,51
15,79
15.4,51
15.8,75
16.2,65
16.6,45
17,63
17.4,69
17.8,39
18.2,76
18.6,59
19,41
19.4,58
19.8,92
20.2,120
20.6,1026
21,137
21.4,141
21.8,415
22.2,1656
22.6,144
23,70
23.4,66
23.8,61
24.2,52
24.6,39
25,65
25.4,69
25.8,54
26.2,65
26.6,65
27,28
27.4,61
27.8,46
28.2,67
28.6,87
29,72
29.4,135
29.8,209
30.2,1136
30.6,1225
31,3215
31.4,583
31.8,183
32.2,91
32.6,64
33,64
33.4,53
33.8,36
34.2,70
34.6,83
35,118
35.4,895
35.8,246
36.2,98
36.6,126
37,427
37.4,3954
37.8,260
38.2,122
38.6,98
39,86
39.4,85
39.8,67
40.2,98
40.6,91
41,182
41.4,326
41.8,1912
42.2,9457
42.6,896
43,429
43.4,745
43.8,11577
44.2,1492
44.6,505
45,3654
45.4,697
45.8,188
46.2,118
46.6,73
47,63
47.4,78
47.8,238
48.2,128
48.6,56
49,37
49.4,60
49.8,331
50.2,219
50.6,115
51,58
51.4,60
51.8,29
52.2,65
52.6,47
53,28
53.4,42
53.8,68
54.2,73
54.6,36
55,39
55.4,76
55.8,137
56.2,59
56.6,51
57,50
57.4,84
57.8,117
58.2,144
58.6,749
59,248
59.4,174
59.8,1167
60.2,471
60.6,673
61,157
61.4,93
61.8,94
62.2,132
62.6,729
63,492
63.4,2127
63.8,619
64.2,221
64.6,239
65,1662
65.4,157
65.8,109
66.2,76
66.6,71
67,74
67.4,74
67.8,90
68.2,118
68.6,216
69,178
69.4,921
69.8,469
70.2,332
70.6,103
71,100
71.4,77
71.8,79
72.2,94
72.6,153
73,1007
73.4,199
73.8,158
74.2,480
74.6,332
75,308
75.4,287
75.8,123
76.2,101
76.6,80
77,102
77.4,193
77.8,89
78.2,100
78.6,88
79,114
79.4,420
79.8,408
80.2,115
80.6,113
81,263
81.4,636
81.8,260
82.2,792
82.6,1008
83,217
83.4,276
83.8,311
84.2,158
84.6,124
85,98
85.4,140
85.8,282
86.2,290
86.6,116
87,87
87.4,93
87.8,62
88.2,104
88.6,104
89,170
89.4,92
89.8,56
90.2,70
90.6,95
91,91
91.4,390
91.8,157
92.2,834
92.6,169
93,88
93.4,82
93.8,73
94.2,59
94.6,70
95,99
95.4,121
95.8,333
96.2,427
96.6,1300
97,209
97.4,459
97.8,144
98.2,148
98.6,312
99,104
99.4,70
99.8,96
100.2,819
100.6,132
101,85
101.4,78
101.8,101
102.2,94
102.6,91
103,83
103.4,166
103.8,800
104.2,221
104.6,224
105,107
105.4,89
105.8,71
106.2,97
106.6,69
107,205
107.4,259
107.8,94
108.2,142
108.6,366
109,211
109.4,111
109.8,65
110.2,106
110.6,129
111,143
111.4,221
111.8,125
112.2,335
112.6,496
113,298
113.4,420
113.8,139
114.2,115
114.6,138
115,208
115.4,226
115.8,571
116.2,168
116.6,277
117,458
117.4,256
117.8,155
118.2,327
118.6,284
119,168
119.4,122
119.8,98
120,85

File: 00-066-0829 (PD3).csv
20.01671,307.9915
20.2477,362.3548
20.4787,339.7795
20.70969,334.8948
20.94068,348.9899
21.17168,333.8057
21.40267,324.6377
21.63366,372.2397
21.86466,432.8959
22.09565,1748.73
22.32664,1706.88
22.55763,333.399
22.78863,338.6382
23.01962,301.1258
23.25061,328.6195
23.48161,309.2572
23.7126,292.3369
23.94359,324.4161
24.17459,306.5843
24.40558,261.9651
24.63657,300.3985
24.86756,297.0368
25.09856,280.1684
25.32955,284.2484
25.56054,254.2215
25.79154,268.0366
26.02253,282.1069
26.25352,257.3017
26.48452,266.2571
26.71551,272.5318
26.9465,272.5848
27.17749,249.9825
27.40849,275.4162
27.63948,293.0453
27.87047,252.7786
28.10147,269.8322
28.33246,276.2572
28.56345,297.9481
28.79445,247.1862
29.02544,254.0978
29.25643,250.7084
29.48742,234.7571
29.71842,241.746
29.94941,270.771
30.1804,265.5758
30.4114,275.6318
30.64239,318.134
30.87338,355.3635
31.10438,391.7794
31.33537,1048.56
31.56636,14142
31.79735,2435.71
32.02835,382.4388
32.25934,301.0543
32.49033,279.5476
32.72133,265.5598
32.95232,303.8949
33.18331,264.2067
33.41431,261.8992
33.6453,268.4456
33.87629,235.2864
34.10728,232.7584
34.33828,277.1173
34.56927,241.3948
34.80026,228.9437
35.03126,237.0231
35.26225,248.1032
35.49324,217.677
35.72424,226.7111
35.95523,213.6075
36.18622,223.35
36.41721,218.2976
36.64821,215.4595
36.8792,221.8993
37.11019,206.4498
37.34119,212.9241
37.57218,217.3215
37.80317,226.0862
38.03417,213.3312
38.26516,194.2798
38.49615,298.4799
38.72714,445.885
38.95814,4723.26
39.18913,350.5031
39.42012,230.3145
39.65112,237.2801
39.88211,216.0254
40.1131,228.0048
40.3441,223.2619
40.57509,211.7596
40.80608,178.2844
41.03707,197.7891
41.26807,219.4482
41.49906,196.9262
41.73005,203.9138
41.96105,200.8032
42.19204,198.3223
42.42303,200.4277
42.65403,217.8808
42.88502,179.2495
43.11601,173.6449
43.347,217.39
43.578,193.8132
43.80899,206.9763
44.03998,199.8387
44.27098,217.3694
44.50197,210.1019
44.73296,306.4319
44.96396,1860.54
45.19495,1070.1
45.42594,4054.8
45.65693,397.6359
45.88793,221.3345
46.11892,195.9909
46.34991,182.9638
46.58091,211.6907
46.8119,186.8036
47.04289,186.4965
47.27389,179.3553
47.50488,174.4248
47.73587,177.869
47.96686,188.4056
48.19786,190.8167
48.42885,177.8955
48.65984,179.255
48.89084,173.4066
49.12183,176.8398
49.35282,181.4448
49.58382,206.4744
49.81481,198.7723
50.0458,171.0191
50.27679,168.724
50.50779,197.3746
50.73878,685.9258
50.96977,657.697
51.20077,607.0482
51.43176,178.4717
51.66275,188.8831
51.89375,179.5908
52.12474,199.5944
52.35573,185.0427
52.58672,169.9659
52.81772,177.8492
53.04871,182.2999
53.2797,187.0374
53.5107,165.3271
53.74169,199.5574
53.97268,177.8745
54.20368,169.6406
54.43467,196.0338
54.66566,183.362
54.89665,186.9302
55.12765,194.031
55.35864,201.3556
55.58963,210.4212
55.82063,321.4568
56.05162,2133
56.28261,3686.75
56.51361,1416.9
56.7446,236.7424
56.97559,182.692
57.20658,194.5197
57.43758,175.0193
57.66857,175.6166
57.89956,182.1235
58.13056,162.9823
58.36155,172.7583
58.59254,196.451
58.82354,163.5404
59.05453,183.46
59.28552,171.8577
59.51651,193.0049
59.74751,170.2234
59.9785,158.964
60.20949,156.8144
60.44049,158.259
60.67148,186.6737
60.90247,165.1572
61.13347,171.9997
61.36446,165.3542
61.59545,157.5752
61.82644,160.7247
62.05744,164.3975
62.28843,158.9912
62.51942,150.9919
62.75042,175.0276
62.98141,161.1059
63.2124,153.4238
63.4434,175.7357
63.67439,181.8967
63.90538,182.9621
64.13637,172.9905
64.36737,159.0967
64.59836,185.1434
64.82935,182.1399
65.06035,183.0876
65.29134,196.5137
65.52233,227.8189
65.75333,1232.01
65.98432,1415.97
66.21531,688.6868
66.4463,245.0137
66.6773,176.6589
66.90829,165.8851
67.13928,161.4009
67.37028,196.1627
67.60127,161.6022
67.83226,155.2215
68.06326,167.1356
68.29425,158.4263
68.52524,182.1766
68.75623,177.7034
68.98723,161.1852
69.21822,156.2395
69.44921,188.7939
69.68021,178.1232
69.9112,187.8062
70.14219,219.7658
70.37319,513.4918
70.60418,529.4659
70.83517,304.3292
71.06616,164.7604
71.29716,168.1144
71.52815,168.4547
71.75914,145.8216
71.99014,162.991
72.22113,173.9917
72.45212,156.5227
72.68312,164.752
72.91411,187.6768
73.1451,172.1772
73.37609,172.7154
73.60709,165.4011
73.83808,155.5677
74.06907,206.3971
74.30007,240.3853
74.53106,530.7666
74.76205,469.2597
74.99305,504.123
75.22404,934.8267
75.45503,483.3371
75.68602,191.6962
75.91702,171.0936
76.14801,181.0079
76.379,179.3223
76.61,158.6787
76.84099,170.591
77.07198,144.5549
77.30298,175.5669
77.53397,160.0989
77.76496,150.3562
77.99595,176.4406
78.22695,164.9819
78.45794,171.8097
78.68893,189.7255
78.91993,350.7704
79.15092,324.5985
79.38191,429.4956
79.61291,315.3773
79.8439,218.3659
79.9429,186.1175

File: 00-067-0137 (PD3).csv
9.65786,218.396
10.10786,215.321
10.55786,214.937
11.00786,211.799
11.45786,212.532
11.90786,205.888
12.35786,199.974
12.80786,199.903
13.25786,201.755
13.70786,198.816
14.15786,201.498
14.60786,198.208
15.05786,195.216
15.50786,199.368
15.95786,192.2736
16.40786,191.875
16.85786,190.777
17.30786,190.276
17.75786,195.005
18.20786,209.7425
18.65786,313.6247
19.10786,211.272
19.55786,190.951
20.00786,184.584
20.45786,185.435
20.90786,179.923
21.35786,177.145
21.80786,181.931
22.25786,190.2742
22.70786,178.178
23.15786,188.461
23.60786,178.647
24.05786,183.3225
24.50786,176.047
24.95786,178.3807
25.40786,179.19
25.85786,177.25
26.30786,181.802
26.75786,183.419
27.20786,181.508
27.65786,192.002
28.10786,224.713
28.55786,927.292
29.00786,770.937
29.45786,223.812
29.90786,182.6369
30.35786,167.175
30.80786,173.5
31.25786,179.392
31.70786,181.298
32.15786,167.873
32.60786,169.945
33.05786,174.3412
33.50786,175.483
33.95786,232.346
34.40786,249.613
34.85786,173.837
35.30786,171.037
35.75786,171.7787
36.20786,169.144
36.65786,168.249
37.10786,173.151
37.55786,326.984
38.00786,306.29
38.45786,204.992
38.90786,495.34
39.35786,1204.84
39.80786,1500.97
40.25786,479.628
40.70786,187.286
41.15786,171.355
41.60786,166.942
42.05786,171.808
42.50786,171.525
42.95786,182.056
43.40786,371.021
43.85786,172.343
44.30786,167.854
44.75786,185.675
45.20786,465.603
45.65786,577.438
46.10786,177.02
46.55786,196.261
47.00786,1421.9
47.45786,391.6455
47.90786,171.439
48.35786,170.715
48.80786,247.077
49.25786,578.96
49.70786,163.776
50.15786,147.643
50.60786,146.271
51.05786,142.083
51.50786,141.493
51.95786,154.082
52.40786,143.655
52.85786,196.204
53.30786,150.783
53.75786,151.64
54.20786,386.852
54.65786,185.789
55.10786,144.152
55.55786,144.568
56.00786,181.868
56.45786,366.159
56.90786,153.365
57.35786,161.096
57.80786,846.142
58.25786,302.104
58.70786,150.317
59.15786,160.045
59.60786,330.264
60.05786,148.692
60.50786,149.158
60.95786,147.157
61.40786,146.1095
61.85786,145.225
62.30786,148.197
62.75786,150.8155
63.20786,145.155
63.65786,153.114
64.10786,170.367
64.55786,891.587
65.00786,324.115
65.45786,161.131
65.90786,147.099
66.35786,145.4917
66.80786,149.161
67.25786,184.421
67.70786,348.052
68.15786,154.535
68.60786,155.737
69.05786,613.616
69.50786,197.461
69.95786,149.779
70.40786,373.638
70.85786,678.807
71.30786,211.708
71.75786,177.11
72.20786,211.163
72.65786,145.112
73.10786,144.999
73.55786,154.166
74.00786,346.157
74.45786,314.179
74.90786,197.317
75.35786,224.634
75.80786,220.404
76.25786,1823.89
76.70786,211.915
77.15786,160.706
77.60786,227.736
78.05786,501.749
78.50786,160.513
78.95786,163.641
79.40786,625.864
79.85786,163.538
80.30786,155.5959
80.75786,498.302
81.20786,154.674
81.65786,145.288
82.10786,600.535
82.55786,163.4016
83.00786,140.783
83.45786,138.701
83.90786,149.067
84.35786,596.357
84.80786,154.683
85.25786,135.045
85.70786,191.6424
86.15786,234.33
86.60786,141.721
87.05786,146.27
87.50786,276.271
87.95786,285.796
88.40786,146.518
88.85786,134.753
89.30786,135.691
89.75786,143.82
90.20786,363.018
90.65786,767.449
91.10786,289.5336
91.55786,145.215
92.00786,143.7512
92.45786,137.057
92.90786,137.529
93.35786,135.298
93.80786,139.651
94.25786,135.707
94.70786,146.906
95.15786,372.191
95.60786,151.943
96.05786,183.8897
96.50786,141.357
96.95786,142.0888
97.40786,185.618
97.85786,150.001
98.30786,148.7018
98.75786,188.472
99.20786,1043.12
99.65786,188.067
100.108,151.721
100.558,283.499
101.008,151.067
101.458,140.796
101.908,147.99
102.358,150.131
102.808,146.213
103.258,140.092
103.708,141.956
104.158,148.612
104.608,155.519
105.058,391.584
105.508,186.547
105.958,180.319
106.408,169.679
106.858,154.295
107.308,170.55
107.758,574.795
108.208,252.561
108.658,454.737
109.108,414.424
109.558,334.348
110.008,172.528
110.458,557.465
110.908,165.625
111.358,200.761
111.808,148.551
112.258,163.435
112.708,160.527
113.158,151.947
113.608,152.094
114.058,172.127
114.508,154.1863
114.958,152.0191
115.408,153.023
115.858,159.7327
116.308,189.876
116.758,818.662
117.208,340.68
117.658,172.391
118.108,172.1145
118.558,331.115
119.008,173.98
119.458,176.277
119.908,221.816
120.358,403.343
120.808,169.173
121.258,173.043
121.708,399.166
122.158,325.328
122.608,173.836
123.058,156.459
123.508,183.99
123.958,157.976
124.408,154.882
124.858,154.082
125.308,158.711
125.758,179.224
126.208,606.223
126.658,195.858
127.108,232.43
127.558,441.301
128.008,475.692
128.458,183.332
128.908,168.28
129.358,164.61
129.708,161.174