Folder: spectrumdavit/data/xrd_icdd_PDF (part 3)

File: 00-055-0805 (PD3).csv
10,438
10.3,433
10.6,359
10.9,378
11.2,413
11.5,388
11.8,368
12.1,405
12.4,926
12.7,6320
13,532
13.3,454
13.6,1122
13.9,11183
14.2,378
14.5,324
14.8,354
15.1,354
15.4,311
15.7,278
16,342
16.3,304
16.6,335
16.9,311
17.2,326
17.5,676
17.8,335
18.1,1216
18.4,315
18.7,324
19,313
19.3,338
19.6,498
19.9,5014
20.2,322
20.5,304
20.8,308
21.1,452
21.4,795
21.7,2909
22,378
22.3,338
22.6,479
22.9,302
23.2,333
23.5,1492
23.8,368
24.1,538
24.4,3930
24.7,376
25,331
25.3,400
25.6,644
25.9,1287
26.2,608
26.5,1089
26.8,47388
27.1,1369
27.4,30998
27.7,870
28,1122
28.3,12755
28.6,716
28.9,5729
29.2,2842
29.5,512
29.8,555
30.1,7667
30.4,2557
30.7,1640
31,7257
31.3,449
31.6,363
31.9,361
32.2,413
32.5,375
32.8,462
33.1,739
33.4,14671
33.7,21683
34,670
34.3,689
34.6,11759
34.9,867
35.2,512
35.5,5862
35.8,1251
36.1,911
36.4,454
36.7,1406
37,3459
37.3,415
37.6,498
37.9,388
38.2,915
38.5,395
38.8,433
39.1,3775
39.4,1986
39.7,3706
40,449
40.3,863
40.6,709
40.9,1392
41.2,2065
41.5,2093
41.8,1203
42.1,452
42.4,436
42.7,885
43,579
43.3,452
43.6,863
43.9,2494
44.2,7332
44.5,2128
44.8,2133
45.1,736
45.4,622
45.7,1406
46,11091
46.3,653
46.6,594
46.9,3759
47.2,760
47.5,5495
47.8,503
48.1,1283
48.4,1860
48.7,558
49,644
49.3,4926
49.6,1759
49.9,2151
50.2,484
50.5,398
50.8,484
51.1,609
51.4,3415
51.7,535
52,867
52.3,4184
52.6,7236
52.9,2395
53.2,1032
53.5,670
53.8,449
54.1,462
54.4,2310
54.7,2116
55,1650
55.3,2531
55.6,830
55.9,1081
56.2,3452
56.5,2796
56.8,3299
57.1,3898
57.4,2481
57.7,6104
58,1511
58.3,609
58.6,3357
58.9,613
59.2,1314
59.5,1199
59.8,408
60.1,1265
60.4,1036
60.7,2238
61,3466
61.3,1020
61.6,454
61.9,570
62.2,457
62.5,1511
62.8,2717
63.1,4331
63.4,795
63.7,784
64,1032
64.3,2776
64.6,749
64.9,420
65.2,881
65.5,1212
65.8,1374
66.1,462
66.4,716
66.7,492
67,1590
67.3,1482
67.6,650
67.9,679
68.2,484
68.5,1931
68.8,1301
69.1,1028
69.4,561
69.7,2450
70,827
70.3,1186
70.6,2099
70.9,1269
71.2,726
71.5,2019
71.8,1374
72.1,1536
72.4,904
72.7,2274
73,1531
73.3,1942
73.6,827
73.9,784
74.2,1012
74.5,809
74.8,996
75.1,1190
75.4,1032
75.7,2450
76,1256
76.3,495
76.6,418
76.9,529
77.2,1337
77.5,867
77.8,777
78.1,957
78.4,863
78.7,1274
79,1931
79.3,915
79.6,460
79.9,529
80.2,1388
80.5,1064
80.8,791
81.1,689
81.4,561
81.7,512
82,856
82.3,798
82.6,1374
82.9,1305
83.2,576
83.5,1269
83.8,650
84.1,1411
84.4,1392
84.7,616
85,594
85.3,1585
85.6,1411
85.9,969
86.2,1195
86.5,1630
86.8,930
87.1,749
87.4,628
87.7,973
88,896
88.3,830
88.6,934
88.9,777
89.2,837
89.5,774
89.8,613
90.1,904
90.4,1328
90.7,893
91,1360
91.3,1114
91.6,523
91.9,512
92.2,576
92.5,660
92.8,512
93.1,582
93.4,619
93.7,900
94,1374
94.3,1812
94.6,1221
94.9,625
95.2,400
95.5,885
95.8,878
96.1,600
96.4,856
96.7,823
97,791
97.3,977
97.6,1351
97.9,1032
98.2,736
98.5,837
98.8,689
99.1,492
99.4,746
99.7,2856
99.98,1655

File: 00-055-0860 (PD3).csv
5,1981
5.46,1945
5.92,1897
6.38,1903
6.84,1862
7.3,1786
7.76,1717
8.22,1732
8.68,1663
9.14,1670
9.6,1631
10.06,1595
10.52,1545
10.98,1495
11.44,1479
11.9,1435
12.36,1433
12.82,1433
13.28,1402
13.74,1360
14.2,1375
14.66,1386
15.12,1412
15.58,1376
16.04,1385
16.5,1360
16.96,1363
17.42,1347
17.88,1360
18.34,2227
18.8,1372
19.26,1333
19.72,1350
20.18,1391
20.64,1350
21.1,1528
21.56,1540
22.02,1342
22.48,1378
22.94,1355
23.4,1412
23.86,2168
24.32,1374
24.78,1344
25.24,1360
25.7,1376
26.16,1371
26.62,1385
27.08,1386
27.54,1373
28,1381
28.46,1356
28.92,1387
29.38,1356
29.84,2111
30.3,26875
30.76,2410
31.22,1427
31.68,1393
32.14,1376
32.6,1310
33.06,1345
33.52,1355
33.98,1363
34.44,1352
34.9,1360
35.36,1454
35.82,2303
36.28,1346
36.74,1340
37.2,1376
37.66,1366
38.12,1329
38.58,1340
39.04,1546
39.5,1335
39.96,1328
40.42,1319
40.88,1332
41.34,1319
41.8,1323
42.26,1347
42.72,1354
43.18,2339
43.64,3353
44.1,1455
44.56,1402
45.02,1358
45.48,1304
45.94,1308
46.4,1255
46.86,1299
47.32,1428
47.78,1409
48.24,1353
48.7,1682
49.16,1481
49.62,1391
50.08,1350
50.54,1309
51,1309
51.46,1262
51.92,1271
52.38,1291
52.84,1292
53.3,1859
53.76,6388
54.22,8452
54.68,1561
55.14,1405
55.6,1314
56.06,1226
56.52,1236
56.98,1278
57.44,1314
57.9,1340
58.36,1295
58.82,1303
59.28,1374
59.74,1313
60.2,1235
60.66,1260
61.12,1231
61.58,1207
62.04,1314
62.5,2008
62.96,3760
63.42,2360
63.88,1456
64.34,1265
64.8,1201
65.26,1226
65.72,1270
66.18,1327
66.64,1458
67.1,1565
67.56,1325
68.02,1329
68.48,1340
68.94,1267
69.4,1264
69.86,1256
70.32,1273
70.78,1298
71.24,2050
71.7,4344
72.16,1935
72.62,1359
73.08,1299
73.54,1252
74,1265
74.46,1257
74.92,1278
75.38,1360
75.84,1323
76.3,1401
76.76,1438
77.22,1260
77.68,1255
78.14,1236
78.6,1289
79.06,1610
79.52,1379
79.98,1738
80.44,1608
80.9,1262
81.36,1242
81.82,1257
82.28,1241
82.74,1457
83.2,1307
83.66,1420
84.12,1367
84.58,1256
85.04,1267
85.5,1273
85.96,1273
86.42,1341
86.88,1841
87.34,2632
87.8,2442
88.26,2656
88.72,1572
89.18,1262
89.64,1236
90.1,1232
90.56,1288
91.02,1335
91.48,1300
91.94,1316
92.4,1258
92.86,1252
93.32,1265
93.78,1274
94.24,1279
94.7,1246
95.16,1403
95.62,1632
96.08,1408
96.54,1399
97,1290
97.46,1265
97.92,1260
98.38,1308
98.84,1346
99.3,1357
99.76,1379
100.22,1368
100.68,1352
101.14,1298
101.6,1302
102.06,1345
102.52,1482
102.98,1757
103.44,2250
103.9,2268
104.36,1596
104.82,1381
105.28,1329
105.74,1335
106.2,1319
106.66,1330
107.12,1350
107.58,1468
108.04,1390
108.5,1319
108.96,1319
109.42,1319
109.88,1290
110.34,1469
110.8,1406
111.26,1645
111.72,1883
112.18,1552
112.64,1468
113.1,1366
113.56,1329
114.02,1343
114.48,1335
114.94,1385
115.4,1383
115.86,1391
116.32,1335
116.78,1360
117.24,1372
117.7,1305
118.16,1318
118.62,1325
119.08,1403
119.54,1618
120,1512
120.46,1468
120.92,1580
121.38,1643
121.84,1574
122.3,1459
122.76,1345
123.22,1350
123.68,1335
124.14,1329
124.6,1345
125.06,1350
125.52,1350
125.98,1374
126.44,1382
126.9,1355
127.36,1345
127.82,1386
128.28,1466
128.74,1448
129.2,1524
129.66,1477
130.12,1466
130.58,1601
131.04,1528
131.5,1657
131.96,1502
132.42,1446
132.88,1446
133.34,1422
133.8,1440
134.26,1446
134.72,1457
135.18,1479
135.64,1517
136.1,1484
136.56,1473
137.02,1441
137.48,1419
137.94,1386
138.4,1561
138.86,1433
139.32,1471
139.78,1664
140,1756

File: 00-055-0894 (PD3).csv
4.9,1304
5.22,1258
5.54,1201
5.86,1223
6.18,1136
6.5,1126
6.82,1141
7.14,1064
7.46,1078
7.78,1119
8.1,1034
8.42,1014
8.74,1040
9.06,1021
9.38,978
9.7,1000
10.02,983
10.34,1016
10.66,942
10.98,934
11.3,941
11.62,1195
11.94,1039
12.26,931
12.58,901
12.9,888
13.22,851
13.54,870
13.86,820
14.18,889
14.5,892
14.82,860
15.14,888
15.46,889
15.78,1289
16.1,896
16.42,872
16.74,931
17.06,880
17.38,885
17.7,938
18.02,830
18.34,946
18.66,1150
18.98,957
19.3,922
19.62,1214
19.94,1802
20.26,1784
20.58,962
20.9,986
21.22,2133
21.54,922
21.86,828
22.18,1299
22.5,945
22.82,765
23.14,846
23.46,953
23.78,1209
24.1,914
24.42,794
24.74,765
25.06,764
25.38,709
25.7,819
26.02,2381
26.34,1749
26.66,814
26.98,731
27.3,1263
27.62,720
27.94,679
28.26,723
28.58,8489
28.9,958
29.22,646
29.54,699
29.86,596
30.18,590
30.5,661
30.82,5199
31.14,956
31.46,728
31.78,19075
32.1,4626
32.42,664
32.74,598
33.06,1562
33.38,645
33.7,578
34.02,1126
34.34,624
34.66,2724
34.98,523
35.3,563
35.62,2033
35.94,1625
36.26,604
36.58,530
36.9,743
37.22,516
37.54,540
37.86,687
38.18,994
38.5,714
38.82,528
39.14,544
39.46,669
39.78,544
40.1,1449
40.42,1008
40.74,502
41.06,479
41.38,580
41.7,1427
42.02,544
42.34,1577
42.66,1042
42.98,492
43.3,495
43.62,712
43.94,502
44.26,766
44.58,507
44.9,750
45.22,1074
45.54,739
45.86,1669
46.18,532
46.5,1478
46.82,698
47.14,506
47.46,598
47.78,482
48.1,906
48.42,1271
48.74,512
49.06,501
49.38,1119
49.7,546
50.02,521
50.34,531
50.66,494
50.98,464
51.3,973
51.62,440
51.94,457
52.26,741
52.58,691
52.9,626
53.22,2352
53.54,826
53.86,1176
54.18,508
54.5,870
54.82,1708
55.14,657
55.46,534
55.78,490
56.1,690
56.42,983
56.74,559
57.06,438
57.38,465
57.7,428
58.02,418
58.34,882
58.66,826
58.98,605
59.3,822
59.62,396
59.94,624
60.26,513
60.58,403
60.9,636
61.22,494
61.54,446
61.86,685
62.18,443
62.5,423
62.82,813
63.14,409
63.46,431
63.78,1271
64.1,610
64.42,432
64.74,415
65.06,396
65.38,440
65.7,436
66.02,420
66.34,2200
66.66,493
66.98,448
67.3,659
67.62,443
67.94,441
68.26,379
68.58,849
68.9,652
69.22,452
69.54,880
69.86,398
70.18,485
70.5,536
70.82,449
71.14,420
71.46,712
71.78,582
72.1,575
72.42,444
72.74,476
73.06,458
73.38,631
73.7,497
74.02,583
74.34,730
74.66,495
74.98,400
75.3,482
75.62,988
75.94,457
76.26,444
76.58,381
76.9,491
77.22,409
77.54,398
77.86,471
78.18,578
78.5,533
78.82,437
79.14,460
79.46,375
79.78,388
80.1,614
80.42,434
80.74,430
81.06,615
81.38,404
81.7,395
82.02,389
82.34,378
82.66,419
82.98,418
83.3,592
83.62,371
83.94,433
84.26,489
84.58,383
84.9,410
85.22,393
85.54,361
85.86,425
86.18,484
86.5,515
86.82,498
87.14,755
87.46,458
87.78,429
88.1,447
88.42,442
88.74,487
89.06,446
89.38,412
89.7,455
90.02,705
90.34,525
90.66,400
90.98,486
91.3,463
91.62,458
91.94,393
92.26,593
92.58,361
92.9,348
93.22,349
93.54,406
93.86,442
94.18,394
94.5,478
94.82,382
95.14,506
95.46,430
95.78,404
96.1,348
96.42,320
96.74,347
97.06,361
97.38,370
97.7,389
98.02,399
98.34,368
98.66,339
98.98,346
99.3,461
99.62,370
99.94,347
100.1,0

File: 00-056-1203 (PD3).csv
4.77366,4824.49
5.07366,4711.12
5.37366,4694.76
5.67366,4604.38
5.97366,4676.38
6.27366,4534.37
6.57366,4593.46
6.87366,4546.42
7.17366,4498.71
7.47366,4480.43
7.77366,4447.59
8.07366,4444.64
8.37366,4450.56
8.67366,4448.57
8.97366,4443.24
9.27366,4427.26
9.57366,4468.35
9.87366,4433.77
10.17366,4362.18
10.47366,4415.61
10.77366,4431.46
11.07366,4375.95
11.37366,4414.47
11.67366,4428.36
11.97366,4389.09
12.27366,4361.86
12.57366,4210.74
12.87366,4402.68
13.17366,4420.25
13.47366,4316.21
13.77366,4257.79
14.07366,4366.73
14.37366,4322.45
14.67366,4383.74
14.97366,4404.72
15.27366,4380.99
15.57366,4408.98
15.87366,4394.29
16.17366,4420.88
16.47366,4289.58
16.77366,4443.95
17.07366,4394.38
17.37366,4289.75
17.67366,4286.75
17.97366,4302.15
18.27366,4432.07
18.57366,4271.93
18.87366,5367.74
19.17366,4378.37
19.47366,4251.36
19.77366,4392.83
20.07366,4320.84
20.37366,4324.95
20.67366,4298.15
20.97366,4386.28
21.27366,4363.15
21.57366,4401.61
21.87366,4400.95
22.17366,4324.56
22.47366,4319.93
22.77366,4248.73
23.07366,4400.2
23.37366,4302.61
23.67366,4350.1
23.97366,6152.09
24.27366,4346.25
24.57366,4440.47
24.87366,8015.74
25.17366,4349.71
25.47366,4259.88
25.77366,4348.65
26.07366,4439.6
26.37366,4290.58
26.67366,4333.98
26.97366,5388.88
27.27366,4350.51
27.57366,4356.42
27.87366,4395.3
28.17366,4256.43
28.47366,4445.3
28.77366,4416.45
29.07366,4294.26
29.37366,4322.19
29.67366,4367.63
29.97366,4304.29
30.27366,4645.1
30.57366,4376.94
30.87366,5137.32
31.17366,4588.91
31.47366,25533.7
31.77366,4902.51
32.07366,4579.85
32.37366,8014.93
32.67366,4561.76
32.97366,4356.17
33.27366,4447.19
33.57366,4281.26
33.87366,4435.79
34.17366,5408.2
34.47366,4596.31
34.77366,5392.55
35.07366,4961.82
35.37366,11840.2
35.67366,4596.12
35.97366,4374.23
36.27366,4285.52
36.57366,4233.48
36.87366,4982.96
37.17366,4138.78
37.47366,4382.26
37.77366,9087.06
38.07366,4462.86
38.37366,8224.89
38.67366,4603.44
38.97366,13425
39.27366,4551.89
39.57366,4340.4
39.87366,4333.76
40.17366,4509.55
40.47366,4584.84
40.77366,15525.7
41.07366,4469.89
41.37366,4371.73
41.67366,4399.02
41.97366,5576.17
42.27366,4302.79
42.57366,5001.64
42.87366,4340.39
43.17366,6070.87
43.47366,4186.59
43.77366,4164.15
44.07366,4594.66
44.37366,4300.53
44.67366,4288.94
44.97366,4371.71
45.27366,6528.67
45.57366,4448.55
45.87366,4441.32
46.17366,4441
46.47366,4532.56
46.77366,5070.09
47.07366,4387.38
47.37366,4308.6
47.67366,4360.41
47.97366,4401.92
48.27366,4378.74
48.57366,4512.21
48.87366,4447.85
49.17366,4886.2
49.47366,6185.2
49.77366,6291.25
50.07366,4431.17
50.37366,4552.15
50.67366,4421.69
50.97366,4535.42
51.27366,4403.63
51.57366,4449.3
51.87366,4292.06
52.17366,4372.08
52.47366,4483.45
52.77366,4357.81
53.07366,4341.42
53.37366,4653.72
53.67366,7281
53.97366,4447.49
54.27366,4301.07
54.57366,4366.63
54.87366,4578.16
55.17366,4606.94
55.47366,4618.52
55.77366,4635.34
56.07366,4922.4
56.37366,4408.27
56.67366,4258.26
56.97366,4275.56
57.27366,6355.65
57.57366,4255.32
57.87366,4343.34
58.17366,4305.37
58.47366,4176.84
58.77366,4641.11
59.07366,4625.58
59.37366,4555.69
59.67366,4379.14
59.97366,4243.06
60.27366,4192.4
60.57366,4293.673
60.87366,4215.15
61.17366,4275.16
61.47366,4339.2
61.77366,4541.29
62.07366,4494.43
62.37366,5515.57
62.67366,4713.32
62.97366,6353.25
63.27366,4368.7
63.57366,4490.39
63.87366,4341.17
64.17366,4454.52
64.47366,6706.14
64.77366,4899.92
65.07366,4379.53
65.37366,4338.31
65.67366,4329.82
65.97366,4356.39
66.27366,4700.48
66.57366,5018.45
66.87366,4405.45
67.17366,5034.24
67.47366,4402.31
67.77366,5209.58
68.07366,4860.23
68.37366,4388.52
68.67366,4286.92
68.97366,4621.48
69.27366,4584.82
69.57366,4366.54
69.87366,4328.72
70.17366,4518.5
70.47366,5171.22
70.77366,4495.44
71.07366,4350.51
71.37366,4331.96
71.67366,4299.65
71.97366,4342.29
72.27366,4331.5
72.57366,4372.01
72.87366,4300.36
73.17366,4394.14
73.47366,4743.2
73.77366,5770.71
74.07366,4521.94
74.37366,4471.36
74.67366,5356.86
74.97366,4578.53
75.27366,4568.5
75.57366,5066.77
75.87366,4521.84
76.17366,4712
76.47366,4712.4
76.77366,4397.35
77.07366,4593.81
77.37366,5000.1
77.67366,4502.37
77.97366,4657.68
78.27366,4796.75
78.57366,4538.8
78.87366,5221.52
79.17366,4561.77
79.47366,4421.83
79.77366,4435.69
80.07366,4761.6
80.37366,4494.46
80.67366,5061.59
80.97366,5154.81
81.27366,4248.75
81.57366,4384.04
81.87366,4948.2
82.17366,4627.8
82.47366,4401.08
82.77366,4299.14
83.07366,4972.62
83.37366,4759.97
83.67366,4514.76
83.97366,4615.58
84.27366,4266.96
84.57366,4397.86
84.87366,4411.89
85.17366,4480.09
85.47366,4475.99
85.77366,5083.13
86.07366,4482.183
86.37366,4757.07
86.67366,4560.05
86.97366,4676.89
87.27366,4415.52
87.57366,5153.56
87.87366,4838.89
88.17366,4465.63
88.47366,4428.59
88.77366,4332.28
89.07366,4324.29
89.37366,4389.21
89.67366,4353.72
89.79366,4314.69

File: 00-056-1315 (PD3).csv
6,6385
6.32,6232
6.64,6088
6.96,6019
7.28,6064
7.6,5975
7.92,6062
8.24,6005
8.56,5967
8.88,6014
9.2,5839
9.52,5921
9.84,5767
10.16,5796
10.48,5751
10.8,5874
11.12,5824
11.44,5955
11.76,5718
12.08,5669
12.4,5790
12.72,5771
13.04,5639
13.36,5652
13.68,5770
14,5566
14.32,5692
14.64,5677
14.96,5603
15.28,5621
15.6,5662
15.92,5528
16.24,5637
16.56,5584
16.88,5636
17.2,5610
17.52,5657
17.84,5620
18.16,5614
18.48,5545
18.8,5532
19.12,6176
19.44,5932
19.76,5732
20.08,5634
20.4,5759
20.72,6574
21.04,5721
21.36,5583
21.68,5578
22,5499
22.32,5543
22.64,5551
22.96,5502
23.28,5725
23.6,5589
23.92,5590
24.24,5571
24.56,5479
24.88,5544
25.2,5481
25.52,5626
25.84,5809
26.16,6159
26.48,14422
26.8,6495
27.12,5732
27.44,5723
27.76,5514
28.08,5640
28.4,5530
28.72,5579
29.04,5501
29.36,5675
29.68,5558
30,5469
30.32,5438
30.64,5536
30.96,5466
31.28,5639
31.6,5516
31.92,5593
32.24,5743
32.56,6965
32.88,6405
33.2,6070
33.52,6623
33.84,16537
34.16,8062
34.48,6074
34.8,5957
35.12,6114
35.44,10347
35.76,6349
36.08,5751
36.4,5559
36.72,5553
37.04,5572
37.36,5586
37.68,6341
38,11364
38.32,6484
38.64,6597
38.96,12022
39.28,7373
39.6,6035
39.92,5892
40.24,6314
40.56,10689
40.88,6187
41.2,5796
41.52,5878
41.84,5963
42.16,7252
42.48,8770
42.8,5968
43.12,5764
43.44,5460
43.76,5506
44.08,5616
44.4,5474
44.72,5494
45.04,5514
45.36,5541
45.68,5447
46,5506
46.32,5558
46.64,5475
46.96,5764
47.28,5529
47.6,5727
47.92,5599
48.24,5532
48.56,5520
48.88,5592
49.2,5547
49.52,5602
49.84,5472
50.16,5626
50.48,6034
50.8,6134
51.12,5861
51.44,5571
51.76,5471
52.08,5539
52.4,5526
52.72,5476
53.04,5515
53.36,5573
53.68,5603
54,5714
54.32,6233
54.64,8177
54.96,6075
55.28,5761
55.6,5913
55.92,5885
56.24,7657
56.56,7776
56.88,5999
57.2,5679
57.52,5773
57.84,5959
58.16,6605
58.48,6187
58.8,7079
59.12,9496
59.44,6455
59.76,6082
60.08,7173
60.4,6112
60.72,5860
61.04,5835
61.36,6144
61.68,5863
62,5604
62.32,5488
62.64,5512
62.96,5548
63.28,5562
63.6,5553
63.92,5525
64.24,5625
64.56,5536
64.88,5494
65.2,5498
65.52,5852
65.84,5569
66.16,5463
66.48,5665
66.8,5512
67.12,5626
67.44,5755
67.76,6018
68.08,8034
68.4,9155
68.72,6491
69.04,5939
69.36,5717
69.68,5555
70,5501
70.32,5500
70.64,5561
70.96,5516
71.28,5831
71.6,5780
71.92,6063
72.24,6485
72.56,6077
72.88,6605
73.2,6307
73.52,5693
73.84,5619
74.16,5643
74.48,5899
74.8,6074
75.12,5703
75.44,5720
75.76,5838
76.08,6358
76.4,6966
76.72,5964
77.04,5547
77.36,5462
77.68,5525
78,5531
78.32,5469
78.64,5538
78.96,5615
79.28,5586
79.6,5555
79.92,5556
80.24,5689
80.56,6096
80.88,6548
81.2,6361
81.52,5860
81.84,6010
82.16,6142
82.48,5639
82.8,5711
83.12,5672
83.44,5758
83.76,6438
84.08,6273
84.4,5848
84.72,5517
85.04,5585
85.36,5563
85.68,5490
86,5589
86.32,5627
86.64,5769
86.96,5695
87.28,5527
87.6,5642
87.92,5590
88.24,5452
88.56,5540
88.88,5446
89.2,5519
89.52,5639
89.84,5583
90.16,5740
90.48,5967
90.8,5751
91.12,5975
91.44,5762
91.76,5694
92.08,5588
92.4,5675
92.72,5688
93.04,5795
93.36,5659
93.68,5523
94,5520
94.32,5552
94.64,5449
94.96,5668
95.28,5896
95.6,6208
95.92,6142
96.24,6038
96.56,5925
96.88,6252
97.2,5926
97.52,5788
97.84,5948
98.16,6149
98.48,6569
98.8,6953
99.12,6439
99.44,5750
99.76,5704
99.9,5563

File: 00-056-1356 (PD3).csv
5,3555
5.4,3558
5.8,3524
6.2,3633
6.6,3409
7,3513
7.4,3407
7.8,3320
8.2,3357
8.6,3302
9,3188
9.4,3103
9.8,3023
10.2,3128
10.6,2965
11,2909
11.4,2821
11.8,2799
12.2,2726
12.6,2686
13,2649
13.4,2674
13.8,2530
14.2,2516
14.6,2439
15,2462
15.4,2448
15.8,2405
16.2,2360
16.6,2386
17,10807
17.4,2335
17.8,2192
18.2,2213
18.6,2121
19,2055
19.4,2072
19.8,2027
20.2,2017
20.6,2050
21,1994
21.4,2493
21.8,1986
22.2,1845
22.6,1910
23,1849
23.4,1842
23.8,1738
24.2,1736
24.6,3973
25,1731
25.4,1713
25.8,1642
26.2,1618
26.6,1641
27,2386
27.4,1548
27.8,1520
28.2,1484
28.6,1496
29,1437
29.4,1490
29.8,1816
30.2,16851
30.6,1488
31,1363
31.4,1321
31.8,1363
32.2,1338
32.6,1259
33,1316
33.4,1280
33.8,1343
34.2,3009
34.6,1362
35,1266
35.4,1269
35.8,2688
36.2,2246
36.6,1290
37,1233
37.4,1209
37.8,1185
38.2,1236
38.6,2125
39,1753
39.4,1143
39.8,1329
40.2,2941
40.6,1101
41,1131
41.4,1134
41.8,1122
42.2,1156
42.6,1393
43,1137
43.4,1038
43.8,1393
44.2,1091
44.6,1120
45,1050
45.4,1057
45.8,1123
46.2,1039
46.6,1028
47,1067
47.4,1081
47.8,1115
48.2,1278
48.6,992
49,1124
49.4,2179
49.8,1009
50.2,1080
50.6,3884
51,1096
51.4,1028
51.8,990
52.2,1570
52.6,1084
53,988
53.4,957
53.8,2716
54.2,1066
54.6,1034
55,995
55.4,1133
55.8,1249
56.2,1024
56.6,1052
57,1017
57.4,955
57.8,968
58.2,1101
58.6,1219
59,2043
59.4,1010
59.8,993
60.2,983
60.6,938
61,1033
61.4,1670
61.8,992
62.2,944
62.6,2853
63,1023
63.4,906
63.8,913
64.2,1052
64.6,959
65,946
65.4,1084
65.8,1071
66.2,961
66.6,920
67,921
67.4,1064
67.8,959
68.2,1192
68.6,909
69,919
69.4,1066
69.8,929
70.2,948
70.6,887
71,952
71.4,988
71.8,885
72.2,1102
72.6,911
73,881
73.4,1098
73.8,906
74.2,919
74.6,1100
75,1048
75.4,915
75.8,1015
76.2,951
76.6,1241
77,926
77.4,1036
77.8,998
78.2,928
78.6,919
79,934
79.4,861
79.8,1230
80.2,1250
80.6,856
81,856
81.4,919
81.8,897
82.2,1076
82.6,1393
83,989
83.4,1009
83.8,1062
84.2,962
84.6,890
85,896
85.4,959
85.8,901
86.2,1048
86.6,1328
87,971
87.4,864
87.8,844
88.2,852
88.6,1035
89,855
89.4,882
89.8,991
90.2,916
90.6,828
91,828
91.4,871
91.8,858
92.2,792
92.6,795
93,842
93.4,986
93.8,995
94.2,859
94.6,855
95,885
95.4,801
95.8,779
96.2,848
96.6,1043
97,859
97.4,905
97.8,1075
98.2,817
98.6,815
99,826
99.4,805
99.8,861
100.2,955
100.6,847
101,778
101.4,868
101.8,900
102.2,808
102.6,854
103,804
103.4,748
103.8,797
104.2,838
104.6,787
105,817
105.4,812
105.8,762
106.2,870
106.6,872
107,863
107.4,803
107.8,787
108.2,870
108.6,781
109,830
109.4,734
109.8,761
110.2,767
110.6,734
111,701
111.4,750
111.8,738
112.2,725
112.6,725
113,750
113.4,815
113.8,713
114.2,684
114.6,700
115,757
115.4,698
115.8,673
116.2,701
116.6,700
117,688
117.4,686
117.8,725
118.2,627
118.6,688
119,702
119.4,683
119.8,667
120,671

File: 00-057-0164 (PD3).csv
5,462
5.46,404
5.92,412
6.38,372
6.84,408
7.3,369
7.76,420
8.22,408
8.68,365
9.14,342
9.6,357
10.06,372
10.52,335
10.98,350
11.44,346
11.9,353
12.36,306
12.82,324
13.28,328
13.74,310
14.2,279
14.66,342
15.12,313
15.58,276
16.04,303
16.5,279
16.96,1584
17.42,303
17.88,296
18.34,289
18.8,2025
19.26,262
19.72,269
20.18,317
20.64,1858
21.1,289
21.56,243
22.02,259
22.48,272
22.94,876
23.4,234
23.86,262
24.32,213
24.78,234
25.24,253
25.7,231
26.16,256
26.62,317
27.08,1267
27.54,847
28,1513
28.46,428
28.92,2098
29.38,400
29.84,256
30.3,222
30.76,210
31.22,216
31.68,216
32.14,207
32.6,202
33.06,228
33.52,188
33.98,306
34.44,980
34.9,216
35.36,193
35.82,529
36.28,250
36.74,342
37.2,202
37.66,262
38.12,234
38.58,182
39.04,210
39.5,188
39.96,164
40.42,151
40.88,234
41.34,193
41.8,210
42.26,2411
42.72,350
43.18,202
43.64,182
44.1,164
44.56,169
45.02,1354
45.48,161
45.94,193
46.4,313
46.86,1764
47.32,196
47.78,169
48.24,172
48.7,156
49.16,177
49.62,240
50.08,177
50.54,313
51,1772
51.46,213
51.92,269
52.38,511
52.84,458
53.3,185
53.76,177
54.22,346
54.68,610
55.14,279
55.6,762
56.06,219
56.52,161
56.98,169
57.44,388
57.9,342
58.36,259
58.82,2275
59.28,250
59.74,676
60.2,1204
60.66,1310
61.12,210
61.58,182
62.04,164
62.5,164
62.96,243
63.42,193
63.88,180
64.34,296
64.8,433
65.26,973
65.72,930
66.18,202
66.64,1024
67.1,605
67.56,182
68.02,276
68.48,190
68.94,240
69.4,222
69.86,610
70.32,306
70.78,213
71.24,858
71.7,317
72.16,557
72.62,876
73.08,818
73.54,824
74,231
74.46,231
74.92,246
75.38,225
75.84,286
76.3,801
76.76,369
77.22,237
77.68,276
78.14,243
78.6,231
79.06,234
79.52,253
79.98,847
80.44,480
80.9,1183
81.36,317
81.82,303
82.28,493
82.74,243
83.2,262
83.66,276
84.12,520
84.58,449
85.04,286
85.5,458
85.96,306
86.42,243
86.88,213
87.34,234
87.8,511
88.26,778
88.72,686
89.18,279
89.64,266
90.1,484
90.56,279
91.02,250
91.48,342
91.94,400
92.4,1024
92.86,524
93.32,331
93.78,272
94.24,416
94.7,303
95.16,660
95.62,543
96.08,276
96.54,262
97,376
97.46,276
97.92,562
98.38,276
98.84,424
99.3,256
99.76,303
100.22,320
100.68,289
101.14,493
101.6,458
102.06,388
102.52,424
102.98,767
103.44,600
103.9,762
104.36,306
104.82,296
105.28,253
105.74,219
106.2,396
106.66,396
107.12,350
107.58,243
108.04,207
108.5,237
108.96,250
109.42,346
109.88,262
110.34,276
110.8,400
111.26,605
111.72,400
112.18,269
112.64,202
113.1,228
113.56,376
114.02,488
114.48,497
114.94,424
115.4,243
115.86,199
116.32,253
116.78,266
117.24,384
117.7,361
118.16,296
118.62,600
119.08,566
119.54,320
120,246
120.46,279
120.92,462
121.38,420
121.84,331
122.3,392
122.76,306
123.22,384
123.68,286
124.14,296
124.6,328
125.06,303
125.52,416
125.98,357
126.44,369
126.9,384
127.36,467
127.82,339
128.28,365
128.74,520
129.2,506
129.66,388
130.12,328
130.58,454
131.04,471
131.5,538
131.96,645
132.42,729
132.88,835
133.34,416
133.8,576
134.26,686
134.72,671
135.18,441
135.64,650
136.1,812
136.56,660
137.02,697
137.48,686
137.94,829
138.4,615
138.86,734
139.32,392
139.78,520
140,388