Folder: spectrumdavit/data/xrd_icdd_PDF (part 5)

File: 00-058-0377 (PD3).csv
5,246
5.4,262
5.8,218
6.2,222
6.6,197
7,210
7.4,156
7.8,162
8.2,174
8.6,163
9,142
9.4,106
9.8,134
10.2,130
10.6,323
11,135
11.4,112
11.8,104
12.2,116
12.6,125
13,116
13.4,90
13.8,102
14.2,107
14.6,112
15,85
15.4,96
15.8,130
16.2,126
16.6,113
17,90
17.4,80
17.8,80
18.2,98
18.6,90
19,74
19.4,94
19.8,86
20.2,82
20.6,92
21,110
21.4,1570
21.8,122
22.2,80
22.6,93
23,82
23.4,62
23.8,80
24.2,92
24.6,90
25,111
25.4,98
25.8,80
26.2,118
26.6,118
27,101
27.4,111
27.8,108
28.2,134
28.6,142
29,182
29.4,572
29.8,249
30.2,149
30.6,142
31,254
31.4,1436
31.8,466
32.2,1674
32.6,7647
33,254
33.4,236
33.8,292
34.2,1190
34.6,287
35,184
35.4,158
35.8,138
36.2,250
36.6,1156
37,1030
37.4,173
37.8,112
38.2,100
38.6,126
39,94
39.4,97
39.8,93
40.2,98
40.6,118
41,133
41.4,161
41.8,308
42.2,697
42.6,278
43,154
43.4,245
43.8,1578
44.2,180
44.6,172
45,98
45.4,79
45.8,80
46.2,106
46.6,70
47,82
47.4,100
47.8,122
48.2,106
48.6,87
49,72
49.4,86
49.8,81
50.2,103
50.6,124
51,98
51.4,115
51.8,91
52.2,96
52.6,98
53,127
53.4,187
53.8,419
54.2,1001
54.6,466
55,236
55.4,444
55.8,258
56.2,142
56.6,118
57,104
57.4,114
57.8,102
58.2,120
58.6,127
59,105
59.4,126
59.8,112
60.2,114
60.6,132
61,250
61.4,272
61.8,150
62.2,205
62.6,214
63,123
63.4,124
63.8,165
64.2,326
64.6,156
65,171
65.4,304
65.8,990
66.2,314
66.6,138
67,110
67.4,112
67.8,170
68.2,173
68.6,112
69,118
69.4,175
69.8,162
70.2,190
70.6,254
71,389
71.4,249
71.8,178
72.2,163
72.6,140
73,163
73.4,222
73.8,265
74.2,156
74.6,136
75,95
75.4,123
75.8,238
76.2,157
76.6,106
77,88
77.4,118
77.8,120
78.2,128
78.6,126
79,94
79.4,86
79.8,118
80.2,111
80.6,134
81,206
81.4,364
81.8,198
82.2,116
82.6,104
83,105
83.4,119
83.8,116
84.2,98
84.6,98
85,99
85.4,108
85.8,126
86.2,110
86.6,104
87,112
87.4,124
87.8,115
88.2,122
88.6,166
89,230
89.4,144
89.8,111
90.2,98
90.6,110
91,111
91.4,156
91.8,193
92.2,361
92.6,372
93,168
93.4,132
93.8,120
94.2,134
94.6,124
95,138
95.4,146
95.8,196
96.2,398
96.6,435
97,186
97.4,131
97.8,132
98.2,102
98.6,104
99,118
99.4,114
99.8,128
100.2,145
100.6,133
101,166
101.4,161
101.8,170
102.2,138
102.6,122
103,124
103.4,135
103.8,139
104.2,146
104.6,128
105,129
105.4,130
105.8,156
106.2,174
106.6,153
107,212
107.4,272
107.8,244
108.2,231
108.6,252
109,190
109.4,142
109.8,128
110.2,144
110.6,146
111,183
111.4,284
111.8,324
112.2,262
112.6,178
113,148
113.4,132
113.8,134
114.2,128
114.6,124
115,120
115.4,118
115.8,127
116.2,141
116.6,170
117,176
117.4,166
117.8,152
118.2,134
118.6,148
119,137
119.4,128
119.8,160
120.02,142

File: 00-058-0386 (PD3).csv
5,1124
5.4,1007
5.8,974
6.2,781
6.6,763
7,768
7.4,713
7.8,640
8.2,630
8.6,582
9,525
9.4,520
9.8,517
10.2,489
10.6,477
11,414
11.4,472
11.8,472
12.2,351
12.6,399
13,356
13.4,364
13.8,344
14.2,344
14.6,382
15,392
15.4,309
15.8,309
16.2,269
16.6,286
17,271
17.4,361
17.8,434
18.2,2789
18.6,319
19,266
19.4,246
19.8,246
20.2,231
20.6,201
21,238
21.4,171
21.8,236
22.2,186
22.6,289
23,2113
23.4,366
23.8,231
24.2,203
24.6,181
25,246
25.4,223
25.8,196
26.2,176
26.6,196
27,178
27.4,208
27.8,176
28.2,181
28.6,168
29,201
29.4,265
29.8,354
30.2,7507
30.6,510
31,224
31.4,236
31.8,208
32.2,191
32.6,193
33,188
33.4,174
33.8,237
34.2,379
34.6,1443
35,10449
35.4,6300
35.8,663
36.2,261
36.6,479
37,427
37.4,113
37.8,146
38.2,166
38.6,123
39,141
39.4,191
39.8,144
40.2,156
40.6,143
41,168
41.4,138
41.8,148
42.2,206
42.6,233
43,989
43.4,2118
43.8,294
44.2,221
44.6,151
45,126
45.4,95
45.8,156
46.2,141
46.6,133
47,208
47.4,542
47.8,128
48.2,853
48.6,276
49,148
49.4,474
49.8,487
50.2,266
50.6,213
51,201
51.4,638
51.8,1687
52.2,277
52.6,198
53,158
53.4,105
53.8,243
54.2,259
54.6,156
55,131
55.4,201
55.8,269
56.2,394
56.6,3662
57,1162
57.4,346
57.8,279
58.2,572
58.6,193
59,163
59.4,158
59.8,120
60.2,136
60.6,108
61,243
61.4,183
61.8,108
62.2,183
62.6,615
63,969
63.4,223
63.8,236
64.2,243
64.6,188
65,289
65.4,2861
65.8,494
66.2,301
66.6,176
67,163
67.4,151
67.8,374
68.2,171
68.6,196
69,254
69.4,999
69.8,851
70.2,211
70.6,339
71,560
71.4,1029
71.8,248
72.2,226
72.6,223
73,161
73.4,351
73.8,1870
74.2,1920
74.6,507
75,597
75.4,269
75.8,131
76.2,146
76.6,138
77,103
77.4,163
77.8,256
78.2,454
78.6,286
79,141
79.4,113
79.8,136
80.2,136
80.6,115
81,126
81.4,95
81.8,166
82.2,123
82.6,163
83,520
83.4,158
83.8,306
84.2,266
84.6,151
85,156
85.4,580
85.8,437
86.2,389
86.6,218
87,369
87.4,269
87.8,176
88.2,178
88.6,193
89,248
89.4,969
89.8,1089
90.2,281
90.6,203
91,136
91.4,148
91.8,115
92.2,143
92.6,158
93,188
93.4,171
93.8,778
94.2,969
94.6,678
95,562
95.4,266
95.8,221
96.2,226
96.6,259
97,708
97.4,1140
97.8,414
98.2,236
98.6,218
99,201
99.4,294
99.8,276
100.2,183
100.6,198
101,821
101.4,650
101.8,196
102.2,238
102.6,432
103,364
103.4,279
103.8,256
104.2,203
104.6,256
105,346
105.4,924
105.8,622
106.2,346
106.6,329
107,316
107.4,259
107.8,181
108.2,216
108.6,218
109,218
109.4,321
109.8,828
110.2,1305
110.6,1107
111,740
111.4,432
111.8,264
112.2,276
112.6,208
113,216
113.4,206
113.8,304
114.2,314
114.6,314
115,264
115.4,284
115.8,221
116.2,188
116.6,183
117,198
117.4,457
117.8,487
118.2,622
118.6,369
119,271
119.4,289
119.8,321
120.04,261

File: 00-058-0850 (PD3).csv
9.2808,362.943
9.8488,386.941
10.4168,491.857
10.9848,410.642
11.5528,430.685
12.1208,470.916
12.6888,520.926
13.2568,742.251
13.8248,697.817
14.3928,669.955
14.9608,609.797
15.5288,642.3138
16.0968,669.956
16.6648,731.544
17.2328,781.35
17.8008,918.573
18.3688,928.681
18.9368,876.018
19.5048,817.665
20.0728,871.292
20.6408,899.0267
21.2088,922.005
21.7768,839.466
22.3448,826.898
22.9128,895.892
23.4808,929.747
24.0488,6518.37
24.6168,1001.4
25.1848,813.243
25.7528,887.676
26.3208,756.645
26.8888,780.506
27.4568,904.568
28.0248,951.544
28.5928,1101.34
29.1608,1184.24
29.7288,1257.31
30.2968,1341.75
30.8648,1770.22
31.4328,21910.3
32.0008,1425.63
32.5688,18941.2
33.1368,1379.83
33.7048,1151.28
34.2728,963.425
34.8408,961.003
35.4088,830.453
35.9768,865.175
36.5448,811.284
37.1128,805.0709
37.6808,748.205
38.2488,667.701
38.8168,705.117
39.3848,741.959
39.9528,853.394
40.5208,926.733
41.0888,962.385
41.6568,968.0109
42.2248,1184.36
42.7928,7407.92
43.3608,1254.41
43.9288,1581.25
44.4968,996.698
45.0648,1223.01
45.6328,1027
46.2008,1112.5
46.7688,13218
47.3368,1196.31
47.9048,959.581
48.4728,991.03
49.0408,849.746
49.6088,819.86
50.1768,894.17
50.7448,901.395
51.3128,781.826
51.8808,871.013
52.4488,979.887
53.0168,1073.28
53.5848,1109.66
54.1528,1268.81
54.7208,1663.06
55.2888,1381.82
55.8568,1520.41
56.4248,1870.92
56.9928,1511.33
57.5608,4559.05
58.1288,1093.33
58.6968,1198.09
59.2648,999.967
59.8328,891.004
60.4008,857.996
60.9688,817.401
61.5368,817.896
62.1048,992.675
62.6728,929.1516
63.2408,918.184
63.8088,1059.58
64.3768,916.654
64.9448,1237.76
65.5128,3496.62
66.0808,941.214
66.6488,898.9917
67.2168,1037.1
67.7848,997.286
68.3528,4950.27
68.9208,1135.33
69.4888,999.302
70.0568,808.742
70.6248,795.088
71.1928,754.15
71.7608,893.82
72.3288,824.403
72.8968,790.919
73.4648,914.226
74.0328,977.173
74.6008,853.768
75.1688,922.136
75.7368,1112.95
76.3048,1389.63
76.8728,1128.95
77.4408,1230.13
78.0088,3130.08
78.5768,1061.09
79.1448,973.506
79.7128,899.277
80.2808,876.458
80.8488,925.628
81.4168,868.625
81.9848,924.188
82.5528,768.586
83.1208,956.436
83.6888,993.451
84.2568,2296.99
84.8248,2304.66
85.3928,896.126
85.9608,971.433
86.5288,847.573
87.0968,787.572
87.6648,801.731
88.2328,937.237
88.8008,1140.37
89.3688,763.0064
89.9368,863.33
90.5048,846.405
91.0728,907.8717
91.6408,815.644
92.2088,747.939
92.7768,863.834
93.3448,2318.14
93.9128,914.906
94.4808,1179.49
95.0488,1046.39
95.6168,875.1646
96.1848,1590.2
96.7528,847.993
97.3208,692.757
97.8888,783.557
98.4568,851.126
99.0248,754.699
99.5928,784.397
100.1608,858.617
100.7288,777.238
101.2968,799.817
101.8648,813.4959
102.4328,976.738
103.0008,738.306
103.5688,725.504
104.1368,867.986
104.7048,921.612
105.2728,1683.53
105.8408,737.618
106.4088,780.861
106.9768,936.263
107.5448,1102.79
108.1128,815.438
108.6808,752.0869
109.2488,828.769
109.8168,758.961
110.3848,939.831
110.9528,646.593
111.5208,739.074
112.0888,925.754
112.6568,945.981
113.2248,973.632
113.7928,858.718
114.3608,971.613
114.9288,1043.91
115.4968,774.8092
116.0648,668.261
116.6328,669.413
117.2008,698.447
117.7688,830.042
118.3368,719.573
118.9048,672.66
119.4728,761.729
120.0408,629.603
120.6088,777.2094
121.1768,734.236
121.7448,884.115
122.3128,1106.57
122.8808,735.675
123.4488,599.722
124.0168,802.3095
124.5848,746.03
125.1528,1015.45
125.7208,756.013
126.2888,741.916
126.8568,733.843
127.4248,751.454
127.9928,1229.5
128.5608,894.432
129.1288,770.735
129.6968,718.019
130.2648,618.51
130.8328,619.461
131.4008,668.074
131.9688,731.213
132.5368,680.225
133.1048,622.121
133.6728,832.087
134.2408,960.327
134.8088,732.736
135.3768,781.945
135.9448,648.972
136.5128,711.897
137.0808,562.863
137.6488,797.539
138.2168,711.522
138.7848,680.393
139.3528,890.271
139.9208,587.943
140.4888,583.309
141.0568,933.482
141.6248,719.038
142.1928,639.433
142.7608,670.918
143.3288,658.914
143.8968,646.633
144.4648,720.161
145.0328,656.913
145.6008,737.877
146.1688,627.986
146.7368,687.165
147.3048,651.329
147.8728,940.66
148.4408,763.091
149.0088,726.81
149.5768,726.026
150.1448,659.588
150.7128,753.5176
151.2808,637.428
151.8488,685.4875
152.4168,605.201
152.9848,648.415
153.5528,698.203
154.1208,904.3522
154.6888,706.964
155.2568,674.974
155.8248,748.623
156.3928,747.282
156.9608,704.526
157.5288,656.728
158.0968,1226.82
158.6648,1037.74
159.2328,642.226
159.8008,617.306
160.3688,591.239
160.9368,654.974
161.5048,684.436
162.0728,693.75
162.6408,717.613
163.2088,790.2
163.7768,675.995
164.3448,759.185
164.9128,729.318
165.4808,675.106
166.0488,549.632
166.6168,584.929
167.1848,764.116
167.7528,619.872
168.3208,608.378
168.8888,676.392
169.4568,782.611
170.0248,754.0155
170.5928,666.549
171.1608,576.7176
171.7288,701.482
172.2968,722.77
172.8648,774.378
173.4328,697.119
174.0008,698.524
174.5688,616.632
175.1368,652.669
175.7048,699.795
176.2728,738.534
176.8408,678.03
177.4088,680.012
177.9768,661.224
178.5448,624.549
178.9088,616.985

File: 00-059-0185 (PD3).csv
5,1372
5.4,1278
5.8,1110
6.2,1066
6.6,1000
7,1015
7.4,905
7.8,847
8.2,781
8.6,774
9,715
9.4,730
9.8,745
10.2,606
10.6,518
11,526
11.4,438
11.8,489
12.2,407
12.6,453
13,475
13.4,445
13.8,407
14.2,321
14.6,343
15,292
15.4,365
15.8,694
16.2,380
16.6,314
17,409
17.4,292
17.8,204
18.2,299
18.6,234
19,256
19.4,350
19.8,219
20.2,204
20.6,586
21,197
21.4,219
21.8,146
22.2,204
22.6,197
23,313
23.4,413
23.8,485
24.2,204
24.6,212
25,210
25.4,204
25.8,277
26.2,362
26.6,402
27,212
27.4,205
27.8,781
28.2,234
28.6,398
29,204
29.4,314
29.8,256
30.2,1129
30.6,467
31,694
31.4,225
31.8,402
32.2,183
32.6,295
33,3051
33.4,305
33.8,1272
34.2,1802
34.6,2179
35,2533
35.4,473
35.8,302
36.2,220
36.6,377
37,223
37.4,285
37.8,423
38.2,4221
38.6,1531
39,526
39.4,3398
39.8,2185
40.2,472
40.6,359
41,219
41.4,241
41.8,394
42.2,307
42.6,321
43,336
43.4,1377
43.8,387
44.2,320
44.6,374
45,373
45.4,233
45.8,270
46.2,270
46.6,496
47,292
47.4,271
47.8,270
48.2,416
48.6,336
49,314
49.4,1178
49.8,419
50.2,380
50.6,369
51,312
51.4,307
51.8,416
52.2,387
52.6,330
53,482
53.4,646
53.8,628
54.2,815
54.6,394
55,511
55.4,880
55.8,533
56.2,905
56.6,593
57,366
57.4,691
57.8,307
58.2,876
58.6,523
59,820
59.4,540
59.8,327
60.2,320
60.6,394
61,701
61.4,541
61.8,636
62.2,494
62.6,376
63,375
63.4,418
63.8,431
64.2,356
64.6,423
65,394
65.4,1576
65.8,438
66.2,422
66.6,801
67,409
67.4,343
67.8,426
68.2,949
68.6,518
69,443
69.4,522
69.8,643
70.2,388
70.6,409
71,336
71.4,584
71.8,365
72.2,720
72.6,555
73,752
73.4,299
73.8,489
74.2,387
74.6,599
75,949
75.4,445
75.8,358
76.2,825
76.6,387
77,314
77.4,759
77.8,380
78.2,270
78.6,321
79,248
79.4,314
79.8,321
80.2,445
80.6,533
81,496
81.4,774
81.8,1022
82.2,372
82.6,350
83,555
83.4,628
83.8,387
84.2,577
84.6,380
85,613
85.4,365
85.8,613
86.2,621
86.6,883
87,423
87.4,380
87.8,299
88.2,423
88.6,372
89,489
89.4,263
89.8,299
90.2,270
90.6,336
91,650
91.4,394
91.8,350
92.2,445
92.6,635
93,504
93.4,533
93.8,555
94.2,475
94.6,511
95,387
95.4,394
95.8,555
96.2,803
96.6,956
97,482
97.4,380
97.8,416
98.2,715
98.6,599
99,423
99.4,358
99.8,599
100.2,380
100.6,358
101,365
101.4,329
101.8,292
102.2,350
102.6,343
103,329
103.4,372
103.8,467
104.2,438
104.6,423
105,657
105.4,621
105.8,577
106.2,504
106.6,482
107,423
107.4,423
107.8,781
108.2,496
108.6,423
109,555
109.4,475
109.8,737
110.2,993
110.6,825
111,978
111.4,898
111.8,672
112.2,526
112.6,511
113,394
113.4,387
113.8,460
114.2,548
114.6,621
115,489
115.4,788
115.8,628
116.2,628
116.6,723
117,672
117.4,533
117.8,642
118.2,891
118.6,752
119,854
119.4,540
119.8,438
120.04,387

File: 00-059-0205 (PD3).csv
6,2512
6.34,2463
6.68,2462
7.02,2489
7.36,2492
7.7,2423
8.04,2408
8.38,2333
8.72,2289
9.06,2284
9.4,2324
9.74,2150
10.08,2170
10.42,2133
10.76,2042
11.1,2136
11.44,1968
11.78,1901
12.12,2013
12.46,1960
12.8,1950
13.14,1839
13.48,1890
13.82,1866
14.16,1815
14.5,1867
14.84,1825
15.18,1837
15.52,1754
15.86,1721
16.2,1731
16.54,1717
16.88,1680
17.22,1653
17.56,1670
17.9,1668
18.24,1595
18.58,1598
18.92,2800
19.26,1573
19.6,1586
19.94,1585
20.28,2323
20.62,1452
20.96,1451
21.3,1479
21.64,1393
21.98,1407
22.32,1373
22.66,1416
23,1316
23.34,1297
23.68,1268
24.02,1412
24.36,1234
24.7,1203
25.04,1172
25.38,1112
25.72,1156
26.06,1122
26.4,1134
26.74,1196
27.08,1091
27.42,1040
27.76,1631
28.1,1140
28.44,1028
28.78,1043
29.12,1309
29.46,1012
29.8,996
30.14,1024
30.48,2133
30.82,2327
31.16,1010
31.5,930
31.84,911
32.18,922
32.52,895
32.86,860
33.2,912
33.54,929
33.88,879
34.22,1090
34.56,2124
34.9,15469
35.24,1677
35.58,956
35.92,835
36.26,861
36.6,1257
36.94,1602
37.28,824
37.62,855
37.96,1290
38.3,12128
38.64,1923
38.98,866
39.32,758
39.66,781
40,1297
40.34,916
40.68,731
41.02,646
41.36,628
41.7,630
42.04,681
42.38,648
42.72,632
43.06,784
43.4,617
43.74,755
44.08,647
44.42,885
44.76,646
45.1,571
45.44,619
45.78,608
46.12,784
46.46,591
46.8,590
47.14,572
47.48,556
47.82,569
48.16,542
48.5,590
48.84,790
49.18,555
49.52,571
49.86,527
50.2,515
50.54,546
50.88,508
51.22,529
51.56,548
51.9,528
52.24,554
52.58,626
52.92,636
53.26,582
53.6,621
53.94,1082
54.28,2253
54.62,792
54.96,906
55.3,3271
55.64,943
55.98,638
56.32,537
56.66,522
57,524
57.34,483
57.68,485
58.02,493
58.36,508
58.7,526
59.04,547
59.38,532
59.72,655
60.06,930
60.4,636
60.74,533
61.08,508
61.42,484
61.76,495
62.1,488
62.44,519
62.78,513
63.12,593
63.46,545
63.8,597
64.14,563
64.48,1093
64.82,757
65.16,587
65.5,522
65.84,497
66.18,592
66.52,804
66.86,1914
67.2,2768
67.54,1993
67.88,864
68.22,1363
68.56,831
68.9,550
69.24,527
69.58,449
69.92,488
70.26,609
70.6,665
70.94,456
71.28,482
71.62,466
71.96,427
72.3,476
72.64,482
72.98,486
73.32,527
73.66,700
74,596
74.34,538
74.68,489
75.02,448
75.36,438
75.7,426
76.04,435
76.38,457
76.72,508
77.06,454
77.4,432
77.74,423
78.08,466
78.42,497
78.76,437
79.1,491
79.44,433
79.78,574
80.12,497
80.46,445
80.8,471
81.14,503
81.48,516
81.82,692
82.16,943
82.5,588
82.84,469
83.18,506
83.52,445
83.86,434
84.2,436
84.54,482
84.88,460
85.22,529
85.56,476
85.9,541
86.24,507
86.58,447
86.92,483
87.26,456
87.6,493
87.94,476
88.28,442
88.62,447
88.96,460
89.3,522
89.64,491
89.98,561
90.32,603
90.66,742
91,520
91.34,540
91.68,552
92.02,686
92.36,1088
92.7,1224
93.04,898
93.38,815
93.72,747
94.06,813
94.4,1170
94.74,796
95.08,578
95.42,520
95.76,495
96.1,469
96.44,459
96.78,465
97.12,419
97.46,491
97.8,444
98.14,462
98.48,521
98.82,473
99.16,453
99.5,470
99.84,500
100.18,553
100.52,524
100.86,494
101.2,444
101.54,487
101.88,490
102.22,494
102.56,479
102.9,571
103.24,642
103.58,507
103.92,487
104.26,506
104.6,551
104.94,505
105.28,538
105.62,582
105.69,692

File: 00-059-0211 (PD3).csv
6,4174
6.36,4039
6.72,3965
7.08,3902
7.44,3878
7.8,3792
8.16,3702
8.52,3715
8.88,3645
9.24,3665
9.6,3671
9.96,3904
10.32,3515
10.68,3542
11.04,3552
11.4,3535
11.76,3485
12.12,3529
12.48,3454
12.84,3452
13.2,3487
13.56,3480
13.92,3442
14.28,3407
14.64,3415
15,3441
15.36,3423
15.72,3439
16.08,3427
16.44,3376
16.8,3414
17.16,3415
17.52,3359
17.88,3399
18.24,3391
18.6,4151
18.96,3400
19.32,3381
19.68,3356
20.04,3353
20.4,3366
20.76,3366
21.12,3329
21.48,3372
21.84,3330
22.2,3354
22.56,3370
22.92,3833
23.28,3473
23.64,3350
24,3323
24.36,3347
24.72,4006
25.08,3423
25.44,3397
25.8,3293
26.16,3269
26.52,3276
26.88,3320
27.24,3577
27.6,3508
27.96,3326
28.32,3305
28.68,3293
29.04,3286
29.4,3382
29.76,3288
30.12,3896
30.48,3242
30.84,3271
31.2,3357
31.56,3637
31.92,4061
32.28,7914
32.64,3476
33,3275
33.36,3644
33.72,4544
34.08,9725
34.44,11822
34.8,4451
35.16,5191
35.52,24858
35.88,4699
36.24,3703
36.6,4025
36.96,9871
37.32,12782
37.68,6307
38.04,6273
38.4,3592
38.76,3436
39.12,3338
39.48,4391
39.84,3512
40.2,3372
40.56,4151
40.92,3286
41.28,3465
41.64,3170
42,3932
42.36,3708
42.72,5189
43.08,4212
43.44,3251
43.8,3283
44.16,3325
44.52,3244
44.88,3306
45.24,3328
45.6,3296
45.96,5052
46.32,3632
46.68,3567
47.04,3884
47.4,3578
47.76,3251
48.12,3953
48.48,3345
48.84,3410
49.2,3297
49.56,3602
49.92,3629
50.28,4126
50.64,6512
51,3764
51.36,6375
51.72,5502
52.08,3566
52.44,3645
52.8,3807
53.16,4654
53.52,3555
53.88,5039
54.24,4771
54.6,3540
54.96,3281
55.32,3374
55.68,3380
56.04,3696
56.4,3291
56.76,3515
57.12,3842
57.48,3870
57.84,4747
58.2,3991
58.56,3412
58.92,4255
59.28,5323
59.64,4111
60,3617
60.36,5583
60.72,4062
61.08,3350
61.44,3447
61.8,3710
62.16,4809
62.52,3825
62.88,3596
63.24,3621
63.6,3776
63.96,4317
64.32,4366
64.68,5019
65.04,6857
65.4,4582
65.76,4458
66.12,3331
66.48,3283
66.84,4011
67.2,3776
67.56,3673
67.92,4213
68.28,4099
68.64,4271
69,4594
69.36,3390
69.72,3435
70.08,3203
70.44,3286
70.8,3292
71.16,3574
71.52,3851
71.88,3618
72.24,3606
72.6,4725
72.96,5452
73.32,4938
73.68,6386
74.04,4123
74.4,4855
74.76,3920
75.12,4375
75.48,3871
75.84,3957
76.2,3495
76.56,3522
76.92,3683
77.28,4106
77.64,3837
78,3439
78.36,3773
78.72,3861
79.08,3795
79.44,3490
79.8,3435
80.16,3345
80.52,3412
80.88,3819
81.24,3716
81.6,3350
81.96,3371
82.32,3230
82.68,3281
83.04,3095
83.4,3222
83.76,3045
84.12,3125
84.48,3324
84.84,3319
85.2,3622
85.56,3436
85.92,3667
86.28,3752
86.64,3642
87,3381
87.36,3594
87.72,3485
88.08,3524
88.44,3331
88.8,3305
89.16,3412
89.52,3648
89.88,3766
90.24,3348
90.6,3897
90.96,3664
91.32,3486
91.68,3497
92.04,3360
92.4,3283
92.76,3316
93.12,3341
93.48,3369
93.84,3340
94.2,3358
94.56,3438
94.92,3787
95.28,3755
95.64,3871
96,3728
96.36,3667
96.72,3443
97.08,3847
97.44,3927
97.8,3595
98.16,3514
98.52,3372
98.88,3564
99.24,3491
99.6,3360
99.96,3299
100.32,3485
100.68,3498
101.04,3578
101.4,3510
101.76,3655
102.12,4129
102.48,3936
102.84,3629
103.2,3387
103.56,3295
103.92,3256
104.28,3356
104.64,3385
105,3346
105.36,3300
105.72,3214
106.08,3283
106.44,3484
106.8,3445
107.16,3192
107.52,3409
107.88,3698
108.24,4014
108.6,4320
108.96,4038
109.32,3507
109.68,3294
110,3224

File: 00-059-0216 (PD3).csv
6,11549
6.4,11406
6.8,11402
7.2,11251
7.6,11247
8,11091
8.4,11089
8.8,11056
9.2,11051
9.6,10979
10,10971
10.4,10954
10.8,10939
11.2,10845
11.6,10840
12,10857
12.4,10815
12.8,10761
13.2,10829
13.6,10804
14,10777
14.4,10724
14.8,10723
15.2,10758
15.6,10778
16,10768
16.4,10768
16.8,10785
17.2,10754
17.6,10889
18,10715
18.4,10777
18.8,10781
19.2,10705
19.6,10799
20,10751
20.4,10757
20.8,10718
21.2,10816
21.6,10678
22,10703
22.4,10650
22.8,10714
23.2,10694
23.6,10714
24,11163
24.4,10598
24.8,11747
25.2,10620
25.6,10611
26,10678
26.4,14042
26.8,10742
27.2,10695
27.6,10792
28,10768
28.4,10702
28.8,10648
29.2,10693
29.6,11012
30,13579
30.4,10631
30.8,10626
31.2,10611
31.6,10644
32,10611
32.4,10630
32.8,10850
33.2,26337
33.6,11105
34,14963
34.4,12454
34.8,10667
35.2,10604
35.6,11990
36,10663
36.4,10644
36.8,10582
37.2,10700
37.6,14611
38,10838
38.4,13802
38.8,10641
39.2,10627
39.6,10598
40,10592
40.4,10617
40.8,10586
41.2,10886
41.6,10860
42,16458
42.4,10705
42.8,10568
43.2,10720
43.6,10706
44,11214
44.4,11154
44.8,10874
45.2,10693
45.6,10657
46,10949
46.4,11020
46.8,10634
47.2,10712
47.6,10721
48,10657
48.4,10687
48.8,10567
49.2,10665
49.6,10653
50,10707
50.4,10927
50.8,12038
51.2,11612
51.6,11990
52,10728
52.4,10772
52.8,10985
53.2,10632
53.6,10699
54,10751
54.4,11564
54.8,11085
55.2,10606
55.6,10794
56,10825
56.4,12714
56.8,12867
57.2,10814
57.6,11058
58,11115
58.4,10746
58.8,10773
59.2,11122
59.6,11014
60,10843
60.4,10787
60.8,10795
61.2,10637
61.6,10693
62,11500
62.4,11179
62.8,11604
63.2,11020
63.6,10781
64,10724
64.4,10541
64.8,11101
65.2,12646
65.6,10672
66,10777
66.4,10728
66.8,10695
67.2,10666
67.6,10709
68,10981
68.4,10828
68.8,10613
69.2,10607
69.6,11934
70,11543
70.4,10753
70.8,10706
71.2,10802
71.6,10600
72,10735
72.4,11196
72.8,11187
73.2,11110
73.6,10981
74,10810
74.4,11752
74.8,12549
75.2,11436
75.6,10845
76,10603
76.4,10646
76.8,10660
77.2,10942
77.6,11158
78,10873
78.4,10879
78.8,10680
79.2,10640
79.6,10749
80,10701
80.4,10756
80.8,10640
81.2,10617
81.6,11166
82,12141
82.4,10734
82.8,10715
83.2,10640
83.6,10648
84,10662
84.4,10824
84.8,10819
85.2,10704
85.6,10789
86,10762
86.4,10979
86.8,10995
87.2,10909
87.6,10671
88,10687
88.4,10634
88.8,10611
89.2,10654
89.6,11566
90,10730
90.4,10659
90.8,10641
91.2,10838
91.6,10928
92,10647
92.4,10708
92.8,10673
93.2,10785
93.6,10651
94,10575
94.4,10755
94.8,10800
95.2,10671
95.6,10800
96,10692
96.4,10810
96.8,10960
97.2,10807
97.6,10988
98,11045
98.4,11289
98.8,10829
99.2,10623
99.6,10586
100,10659
100.4,10621
100.8,10651
101.2,10759
101.6,10803
102,10649
102.4,10686
102.8,10915
103.2,11171
103.6,10917
104,10699
104.4,10652
104.8,10653
105.2,10852
105.6,10745
106,10724
106.4,10682
106.8,10775
107.2,10846
107.6,11110
108,11179
108.4,11044
108.8,10932
109.2,10738
109.6,10876
110,10833
110.4,10957
110.8,10907
111.2,11115
111.6,10886
112,10716
112.4,10663
112.8,11179
113.2,10958
113.6,10746
114,11107
114.4,11145
114.8,11572
115.2,11287
115.6,10931
116,10828
116.4,10684
116.8,10762
117.2,10762
117.6,10715
118,10705
118.4,10757
118.8,10808
119.2,10732
119.6,10667
120,10997
120.4,10715
120.8,10652
121.2,10834
121.6,10988
122,10771
122.4,10611
122.76,10541

File: 00-059-0244 (PD3).csv
10,4967
10.36,5081
10.72,4898
11.08,4906
11.44,5237
11.8,4651
12.16,4587
12.52,4448
12.88,4280
13.24,4121
13.6,3938
13.96,3801
14.32,3728
14.68,3786
15.04,3514
15.4,3615
15.76,3455
16.12,3301
16.48,3283
16.84,3312
17.2,3219
17.56,3347
17.92,5951
18.28,2976
18.64,2923
19,3041
19.36,2844
19.72,2884
20.08,2826
20.44,2756
20.8,2739
21.16,2674
21.52,2642
21.88,2643
22.24,2857
22.6,4316
22.96,2559
23.32,3860
23.68,2576
24.04,2381
24.4,2414
24.76,2486
25.12,2507
25.48,2372
25.84,2438
26.2,2741
26.56,2982
26.92,2464
27.28,2866
27.64,2562
28,3453
28.36,2364
28.72,2302
29.08,2204
29.44,2257
29.8,2255
30.16,2201
30.52,2216
30.88,2283
31.24,7039
31.6,2253
31.96,2198
32.32,2118
32.68,2189
33.04,2192
33.4,2204
33.76,2232
34.12,2248
34.48,2257
34.84,2511
35.2,3343
35.56,7603
35.92,13676
36.28,10167
36.64,16241
37,3622
37.36,2638
37.72,3966
38.08,6892
38.44,2679
38.8,2541
39.16,5664
39.52,9608
39.88,2857
40.24,2262
40.6,2245
40.96,2150
41.32,2193
41.68,2148
42.04,2166
42.4,2085
42.76,2166
43.12,2455
43.48,4362
43.84,2493
44.2,6354
44.56,3699
44.92,2830
45.28,7651
45.64,2329
46,2118
46.36,2361
46.72,1971
47.08,2094
47.44,2130
47.8,2788
48.16,3283
48.52,2195
48.88,2032
49.24,2390
49.6,2083
49.96,1926
50.32,1990
50.68,2576
51.04,3145
51.4,2053
51.76,1850
52.12,1919
52.48,1843
52.84,2420
53.2,1942
53.56,1878
53.92,1867
54.28,1966
54.64,1923
55,1872
55.36,2050
55.72,3471
56.08,2185
56.44,3108
56.8,3544
57.16,2064
57.52,1963
57.88,2205
58.24,2238
58.6,3827
58.96,2662
59.32,2405
59.68,6865
60.04,2497
60.4,2140
60.76,2944
61.12,1998
61.48,2129
61.84,2215
62.2,2301
62.56,2798
62.92,2042
63.28,2083
63.64,2818
64,2497
64.36,2814
64.72,4850
65.08,4917
65.44,2772
65.8,2153
66.16,3119
66.52,2095
66.88,2053
67.24,2037
67.6,2737
67.96,2093
68.32,1975
68.68,1964
69.04,2090
69.4,3626
69.76,2131
70.12,1860
70.48,1961
70.84,2130
71.2,2102
71.56,2639
71.92,3376
72.28,2082
72.64,1998
73,2086
73.36,3958
73.72,3541
74.08,2779
74.44,3454
74.8,3699
75.16,2259
75.52,2214
75.88,3854
76.24,3272
76.6,3053
76.96,2604
77.32,2446
77.68,2212
78.04,2890
78.4,3095
78.76,2105
79.12,2021
79.48,2298
79.84,2514
80.2,1954
80.56,2024
80.92,2220
81.28,2290
81.64,1962
82,1941
82.36,1991
82.72,2037
83.08,2117
83.44,2495
83.8,2111
84.16,2664
84.52,2644
84.88,2086
85.24,2021
85.6,1988
85.96,1970
86.32,2251
86.68,2366
87.04,2009
87.4,1922
87.76,1970
88.12,1941
88.48,1935
88.84,1953
89.2,2335
89.56,2070
89.92,1992
90.28,2011
90.64,2038
91,2135
91.36,2337
91.72,2104
92.08,1971
92.44,2163
92.8,2201
93.16,2057
93.52,2071
93.88,2153
94.24,2073
94.6,2178
94.96,2455
95.32,2418
95.68,2101
96.04,2024
96.4,1985
96.76,1944
97.12,2146
97.48,2585
97.84,3594
98.2,3222
98.56,2258
98.92,2003
99.28,2226
99.64,2869
100,2596
100.36,2154
100.72,2177
101.08,2113
101.44,2138
101.8,2120
102.16,2588
102.52,2639
102.88,2191
103.24,2113
103.6,2068
103.96,2799
104.32,2842
104.68,2709
105.04,2461
105.4,2408
105.76,2320
106.12,2297
106.48,2526
106.84,2440
107.2,2370
107.56,2660
107.92,2679
108.28,2393
108.64,2198
109,2510
109.36,2523
109.72,2501
110.08,2323
110.44,2658
110.8,2560
111.16,2110
111.52,2118
111.88,2243
112.24,2313
112.6,2379
112.96,2216
113.32,2250
113.68,2151
114.04,2257
114.4,2173
114.76,2224
115.12,2119
115.48,2408
115.84,2281
116.2,2264
116.56,2181
116.9,2161