Folder: spectrumdavit/data/xrd_icdd_PDF (part 4)

File: 00-057-0355 (PD3).csv
6,6130
6.32,5798
6.64,5600
6.96,5331
7.28,5456
7.6,5123
7.92,5365
8.24,4966
8.56,4630
8.88,4386
9.2,4429
9.52,4464
9.84,4357
10.16,4307
10.48,4738
10.8,4269
11.12,4184
11.44,4083
11.76,3928
12.08,3925
12.4,3917
12.72,3978
13.04,3934
13.36,3830
13.68,3802
14,3846
14.32,3978
14.64,3571
14.96,3934
15.28,3872
15.6,3683
15.92,3720
16.24,3507
16.56,3614
16.88,3685
17.2,3597
17.52,3797
17.84,7088
18.16,5490
18.48,3784
18.8,3555
19.12,3533
19.44,3438
19.76,3349
20.08,3261
20.4,3358
20.72,3440
21.04,5403
21.36,3442
21.68,3440
22,3186
22.32,3224
22.64,3064
22.96,3366
23.28,5330
23.6,3365
23.92,3168
24.24,3056
24.56,3290
24.88,3222
25.2,3490
25.52,13834
25.84,4891
26.16,3242
26.48,2986
26.8,2954
27.12,2986
27.44,3054
27.76,3275
28.08,4584
28.4,3499
28.72,4454
29.04,3784
29.36,3182
29.68,2941
30,2995
30.32,3122
30.64,4646
30.96,5925
31.28,3090
31.6,7630
31.92,3421
32.24,2846
32.56,2851
32.88,2898
33.2,2838
33.52,2813
33.84,2861
34.16,2997
34.48,4147
34.8,3118
35.12,7942
35.44,3165
35.76,3558
36.08,27571
36.4,3429
36.72,3339
37.04,29368
37.36,3496
37.68,2989
38,2877
38.32,2949
38.64,6557
38.96,2957
39.28,2813
39.6,2784
39.92,2816
40.24,2800
40.56,3733
40.88,5742
41.2,3088
41.52,4466
41.84,2746
42.16,2792
42.48,2786
42.8,2794
43.12,4290
43.44,2846
43.76,3123
44.08,2864
44.4,2890
44.72,2776
45.04,2869
45.36,3016
45.68,9091
46,2882
46.32,2869
46.64,2768
46.96,2872
47.28,3520
47.6,10864
47.92,3387
48.24,2893
48.56,2878
48.88,6496
49.2,14906
49.52,6075
49.84,4864
50.16,2822
50.48,2819
50.8,2696
51.12,2741
51.44,2774
51.76,2859
52.08,5928
52.4,2842
52.72,5550
53.04,4222
53.36,2694
53.68,2744
54,2578
54.32,2610
54.64,2659
54.96,2626
55.28,4795
55.6,3067
55.92,3226
56.24,8154
56.56,2845
56.88,5325
57.2,3046
57.52,2587
57.84,2525
58.16,2978
58.48,3101
58.8,2790
59.12,3197
59.44,2538
59.76,3845
60.08,6096
60.4,3770
60.72,2677
61.04,2888
61.36,2808
61.68,2830
62,2525
62.32,2464
62.64,2653
62.96,4203
63.28,4963
63.6,2592
63.92,2533
64.24,2589
64.56,2589
64.88,2491
65.2,2477
65.52,2621
65.84,2642
66.16,4322
66.48,2965
66.8,4578
67.12,2621
67.44,2627
67.76,2741
68.08,2766
68.4,3630
68.72,2691
69.04,2730
69.36,5003
69.68,3907
70,3258
70.32,2541
70.64,2544
70.96,2494
71.28,2538
71.6,2699
71.92,3339
72.24,2683
72.56,3478
72.88,2510
73.2,2571
73.52,2851
73.84,2634
74.16,2941
74.48,3235
74.8,2675
75.12,2578
75.44,3648
75.76,5717
76.08,3176
76.4,3243
76.72,2662
77.04,2504
77.36,3059
77.68,2541
78,3725
78.32,2728
78.64,2776
78.96,3290
79.28,2718
79.6,3491
79.92,2910
80.24,2549
80.56,2406
80.88,3403
81.2,4565
81.52,3322
81.84,2517
82.16,2442
82.48,2342
82.8,3285
83.12,2659
83.44,2597
83.76,2605
84.08,2773
84.4,3118
84.72,2850
85.04,2448
85.36,2405
85.68,2283
86,2648
86.32,3994
86.64,2699
86.96,2806
87.28,3078
87.6,3638
87.92,3605
88.24,2755
88.56,2395
88.88,2296
89.2,2382
89.52,2885
89.84,2878
90.16,4034
90.48,3034
90.8,2389
91.12,2576
91.44,2536
91.76,2472
92.08,2440
92.4,2254
92.72,2405
93.04,2414
93.36,2866
93.68,2691
94,2451
94.32,2342
94.64,2706
94.96,2547
95.28,3154
95.6,2909
95.92,4064
96.24,3480
96.56,2523
96.88,2584
97.2,2506
97.52,2406
97.84,2491
98.16,2374
98.48,2440
98.8,3669
99.12,3904
99.44,2824
99.76,2344
100,2469

File: 00-057-0441 (PD3).csv
10,7872
10.32,7542
10.64,7129
10.96,6772
11.28,6800
11.6,6674
11.92,6757
12.24,6517
12.56,6290
12.88,6325
13.2,7546
13.52,6329
13.84,6094
14.16,6067
14.48,6371
14.8,6171
15.12,5968
15.44,5977
15.76,6172
16.08,5479
16.4,5795
16.72,5740
17.04,6692
17.36,5222
17.68,5256
18,5059
18.32,5356
18.64,5229
18.96,5089
19.28,4897
19.6,5103
19.92,5186
20.24,4720
20.56,4921
20.88,5162
21.2,5613
21.52,19631
21.84,5756
22.16,5049
22.48,4782
22.8,4953
23.12,5535
23.44,4794
23.76,4540
24.08,4613
24.4,5300
24.72,6069
25.04,4590
25.36,4722
25.68,4384
26,4561
26.32,5467
26.64,10665
26.96,4479
27.28,4353
27.6,4710
27.92,5994
28.24,4467
28.56,4845
28.88,10271
29.2,5397
29.52,4975
29.84,18348
30.16,4853
30.48,4880
30.8,7267
31.12,44817
31.44,5443
31.76,10030
32.08,4414
32.4,4503
32.72,5003
33.04,4352
33.36,4547
33.68,4651
34,5120
34.32,11418
34.64,29700
34.96,6932
35.28,4964
35.6,4431
35.92,4520
36.24,4413
36.56,4289
36.88,4396
37.2,4615
37.52,4193
37.84,4268
38.16,4290
38.48,4253
38.8,4221
39.12,4217
39.44,4822
39.76,15235
40.08,4887
40.4,6116
40.72,4326
41.04,4493
41.36,8880
41.68,5157
42,6777
42.32,4438
42.64,4792
42.96,4476
43.28,4510
43.6,5428
43.92,22253
44.24,11369
44.56,4447
44.88,11357
45.2,4590
45.52,4270
45.84,3644
46.16,4839
46.48,3564
46.8,3522
47.12,3595
47.44,3519
47.76,3505
48.08,4108
48.4,6359
48.72,3634
49.04,3607
49.36,3700
49.68,4127
50,3797
50.32,6691
50.64,3833
50.96,3381
51.28,3556
51.6,4362
51.92,3700
52.24,3573
52.56,3908
52.88,6128
53.2,4144
53.52,12879
53.84,5747
54.16,4435
54.48,5628
54.8,7133
55.12,3559
55.44,4965
55.76,4197
56.08,5139
56.4,3639
56.72,3474
57.04,3440
57.36,3479
57.68,5917
58,5457
58.32,5251
58.64,3649
58.96,3513
59.28,3639
59.6,7918
59.92,4236
60.24,3825
60.56,4205
60.88,4766
61.2,3440
61.52,3515
61.84,3891
62.16,3320
62.48,3366
62.8,3534
63.12,3323
63.44,3461
63.76,3655
64.08,3891
64.4,4280
64.72,13732
65.04,4887
65.36,3711
65.68,3588
66,4153
66.32,4629
66.64,3860
66.96,3864
67.28,3675
67.6,4700
67.92,3906
68.24,5297
68.56,6154
68.88,3826
69.2,3609
69.52,4596
69.84,3694
70.16,3784
70.48,4008
70.8,5941
71.12,3831
71.44,3651
71.76,4030
72.08,3899
72.4,4272
72.72,7612
73.04,6621
73.36,6919
73.68,4491
74,4743
74.32,4792
74.64,3728
74.96,3598
75.28,3699
75.6,3801
75.92,4659
76.24,5368
76.56,4176
76.88,4304
77.2,4513
77.52,5045
77.84,6517
78.16,5067
78.48,3915
78.8,5091
79.12,4615
79.44,3809
79.76,3639
80.08,3573
80.4,3825
80.72,4074
81.04,3755
81.36,3626
81.68,3816
82,3826
82.32,5363
82.64,5332
82.96,3716
83.28,3881
83.6,4841
83.92,4260
84.24,3576
84.56,4476
84.88,4678
85.2,4950
85.52,5035
85.84,5346
86.16,4428
86.48,4299
86.8,3813
87.12,4127
87.44,3806
87.76,4265
88.08,4272
88.4,4005
88.72,3886
89.04,3799
89.36,4921
89.68,5601
90,5373
90.32,4748
90.64,4782
90.96,4884
91.28,5149
91.6,4627
91.92,4499
92.24,4477
92.56,5511
92.88,5659
93.2,5271
93.52,4826
93.84,4503
94.16,4709
94.48,4999
94.8,4642
95.12,4603
95.44,5202
95.76,5681
96.08,4962
96.4,4892
96.72,4800
97.04,5645
97.36,5370
97.68,4845
98,4880
98.32,5219
98.64,4812
98.96,4926
99.28,4743
99.6,4964
99.92,5040
100,4969

File: 00-057-0451 (PD3).csv
10,5815
10.32,5550
10.64,5680
10.96,5318
11.28,5300
11.6,5040
11.92,5183
12.24,4968
12.56,5185
12.88,5905
13.2,15518
13.52,5028
13.84,5210
14.16,4925
14.48,4515
14.8,4768
15.12,4910
15.44,5435
15.76,4705
16.08,4455
16.4,4528
16.72,4428
17.04,4288
17.36,4078
17.68,4323
18,4143
18.32,4008
18.64,4113
18.96,4130
19.28,5415
19.6,4238
19.92,4163
20.24,3948
20.56,3825
20.88,3893
21.2,3735
21.52,3738
21.84,3745
22.16,3748
22.48,3863
22.8,4148
23.12,3803
23.44,3765
23.76,4245
24.08,4680
24.4,36685
24.72,4785
25.04,3860
25.36,4010
25.68,3898
26,4708
26.32,4603
26.64,9025
26.96,4873
27.28,21363
27.6,5048
27.92,4183
28.24,4003
28.56,4223
28.88,3973
29.2,4393
29.52,4325
29.84,6495
30.16,4665
30.48,3660
30.8,3860
31.12,3533
31.44,3768
31.76,3418
32.08,3378
32.4,3758
32.72,3548
33.04,4698
33.36,33460
33.68,4148
34,3550
34.32,3663
34.64,4205
34.96,16678
35.28,4033
35.6,3705
35.92,3883
36.24,3738
36.56,4083
36.88,4470
37.2,6160
37.52,3573
37.84,3585
38.16,3710
38.48,4188
38.8,13210
39.12,8888
39.44,8988
39.76,3943
40.08,3685
40.4,3578
40.72,3548
41.04,3600
41.36,3325
41.68,4503
42,4915
42.32,3443
42.64,3448
42.96,4920
43.28,5008
43.6,4813
43.92,4238
44.24,3993
44.56,4253
44.88,3668
45.2,3840
45.52,12213
45.84,5720
46.16,4108
46.48,11385
46.8,8698
47.12,3675
47.44,3640
47.76,4280
48.08,4398
48.4,4130
48.72,3443
49.04,4738
49.36,4223
49.68,12448
50,4388
50.32,3488
50.64,3568
50.96,5445
51.28,9630
51.6,5883
51.92,3725
52.24,4868
52.56,6665
52.88,3320
53.2,3248
53.52,4733
53.84,3425
54.16,3243
54.48,3393
54.8,3558
55.12,3508
55.44,3973
55.76,4250
56.08,3688
56.4,3485
56.72,3625
57.04,3593
57.36,3023
57.68,3045
58,3200
58.32,3250
58.64,5828
58.96,3883
59.28,3290
59.6,3440
59.92,3455
60.24,3320
60.56,5268
60.88,5713
61.2,3850
61.52,4410
61.84,6835
62.16,3515
62.48,3348
62.8,4773
63.12,3283
63.44,3205
63.76,2998
64.08,3655
64.4,4078
64.72,3295
65.04,5483
65.36,6140
65.68,4075
66,4543
66.32,3160
66.64,3080
66.96,3178
67.28,3365
67.6,3543
67.92,3425
68.24,3980
68.56,3843
68.88,6405
69.2,3698
69.52,3635
69.84,4995
70.16,3865
70.48,3233
70.8,3693
71.12,4693
71.44,3388
71.76,2970
72.08,4098
72.4,3315
72.72,3305
73.04,3308
73.36,3858
73.68,3583
74,3273
74.32,4308
74.64,4428
74.96,3408
75.28,3048
75.6,3443
75.92,4588
76.24,4073
76.56,3753
76.88,3105
77.2,4040
77.52,4328
77.84,3413
78.16,4468
78.48,3385
78.8,3498
79.12,3853
79.44,3525
79.76,4838
80.08,3978
80.4,3450
80.72,3380
81.04,4283
81.36,3828
81.68,5760
82,4060
82.32,3450
82.64,3438
82.96,3645
83.28,3958
83.6,3725
83.92,4338
84.24,3500
84.56,3525
84.88,4270
85.2,4208
85.52,3293
85.84,3148
86.16,3143
86.48,3298
86.8,3278
87.12,4135
87.44,3885
87.76,3425
88.08,3233
88.4,4358
88.72,3973
89.04,3200
89.36,4233
89.68,4350
90,3505
90.32,3940
90.64,3483
90.96,3495
91.28,3235
91.6,3093
91.92,2908
92.24,2725
92.56,3133
92.88,3070
93.2,3795
93.52,3675
93.84,3470
94.16,3495
94.48,3273
94.8,3233
95.12,3158
95.44,2770
95.76,2858
96.08,3543
96.4,3883
96.72,3160
97.04,3225
97.36,3425
97.68,3298
98,3098
98.32,3315
98.64,3510
98.96,3360
99.28,3310
99.6,3393
99.92,3385
100,3335

File: 00-057-0836 (PD3).csv
14.977,783
15.447,764
15.917,780
16.387,695
16.857,618
17.327,603
17.797,740
18.267,569
18.737,525
19.207,517
19.677,545
20.147,558
20.617,565
21.087,527
21.557,525
22.027,537
22.497,492
22.967,466
23.437,499
23.907,479
24.377,487
24.847,552
25.317,488
25.787,535
26.257,630
26.727,1618
27.197,17916
27.667,5676
28.137,1308
28.607,1118
29.077,1108
29.547,15395
30.017,1237
30.487,784
30.957,678
31.427,588
31.897,732
32.367,1101
32.837,20161
33.307,687
33.777,541
34.247,546
34.717,535
35.187,467
35.657,424
36.127,582
36.597,416
37.067,415
37.537,1709
38.007,645
38.477,362
38.947,379
39.417,350
39.887,370
40.357,346
40.827,696
41.297,379
41.767,355
42.237,349
42.707,378
43.177,661
43.647,549
44.117,591
44.587,4887
45.057,2130
45.527,662
45.997,626
46.467,550
46.937,5991
47.407,692
47.877,519
48.347,466
48.817,435
49.287,463
49.757,525
50.227,511
50.697,791
51.167,13660
51.637,1011
52.107,572
52.577,524
53.047,456
53.517,572
53.987,601
54.457,597
54.927,1231
55.397,16149
55.867,941
56.337,1508
56.807,3013
57.277,592
57.747,452
58.217,435
58.687,438
59.157,412
59.627,393
60.097,401
60.567,411
61.037,388
61.507,3557
61.977,436
62.447,372
62.917,390
63.387,360
63.857,334
64.327,334
64.797,341
65.267,341
65.737,365
66.207,337
66.677,368
67.147,329
67.617,360
68.087,395
68.557,1106
69.027,645
69.497,434
69.967,409
70.437,460
70.907,547
71.377,2990
71.847,1891
72.317,5786
72.787,521
73.257,461
73.727,471
74.197,426
74.667,480
75.137,672
75.607,2228
76.077,599
76.547,5229
77.017,614
77.487,455
77.957,706
78.427,2793
78.897,440
79.367,399
79.837,390
80.307,423
80.777,1838
81.247,905
81.717,397
82.187,443
82.657,438
83.127,461
83.597,504
84.067,4634
84.537,697
85.007,443
85.477,712
85.947,2223
86.417,501
86.887,367
87.357,383
87.827,369
88.297,326
88.767,368
89.237,356
89.707,407
90.177,422
90.647,2211
91.117,487
91.587,426
92.057,366
92.527,363
92.997,380
93.467,541
93.937,2253
94.407,600
94.877,385
95.347,356
95.817,348
96.287,371
96.757,342
97.227,345
97.697,347
98.167,355
98.637,412
99.107,1633
99.577,1221
100.047,605
100.517,814
100.987,411
101.457,437
101.927,481
102.397,4493
102.867,1640
103.337,465
103.807,401
104.277,412
104.747,407
105.217,418
105.687,615
106.157,745
106.627,483
107.097,430
107.567,465
108.037,535
108.507,2685
108.977,3045
109.447,1626
109.917,1074
110.387,597
110.857,529
111.327,485
111.797,500
112.267,631
112.737,2102
113.207,1015
113.677,1030
114.147,999
114.617,504
115.087,444
115.557,1097
116.027,785
116.497,438
116.967,446
117.437,426
117.907,474
118.377,423
118.847,489
119.317,589
119.787,1496
120.257,1113
120.727,458
121.197,476
121.667,538
122.137,1457
122.607,836
123.077,596
123.547,549
124.017,788
124.487,785
124.957,654
125.427,542
125.897,598
126.367,1002
126.837,1067
127.307,517
127.777,511
128.247,488
128.717,511
129.187,519
129.657,609
130.127,1639
130.597,1119
131.067,1163
131.537,588
132.007,576
132.477,585
132.947,2218
133.417,819
133.887,766
134.357,568
134.827,574
135.297,591
135.767,739
136.237,2938
136.707,1089
137.177,897
137.647,606
138.117,557
138.587,522
139.057,555
139.527,550
139.997,507
140.467,562
140.937,554
141.407,548
141.877,569
142.347,721
142.817,1815
143.287,837
143.757,1085
144.227,1168
144.697,1115
145.167,999
145.637,802
146.107,635
146.577,600
147.047,626
147.517,725
147.987,1046
148.457,3049
148.927,1113
149.397,2054
149.867,831
150.337,690
150.807,641
151.277,576
151.747,622
152.217,619
152.687,617
153.157,588
153.627,636
154.097,603
154.567,609
154.977,551

File: 00-058-0246 (PD3).csv
10,2114
10.28,2071
10.56,2168
10.84,2142
11.12,1988
11.4,2144
11.68,2058
11.96,2155
12.24,2058
12.52,2084
12.8,2109
13.08,2152
13.36,2121
13.64,2072
13.92,2092
14.2,1990
14.48,2045
14.76,1958
15.04,2009
15.32,1931
15.6,1884
15.88,1934
16.16,1943
16.44,1929
16.72,2040
17,2487
17.28,1915
17.56,1954
17.84,1954
18.12,1877
18.4,1797
18.68,1868
18.96,1774
19.24,1765
19.52,1876
19.8,1824
20.08,1729
20.36,1811
20.64,1829
20.92,1765
21.2,1848
21.48,1799
21.76,1695
22.04,1738
22.32,1712
22.6,1766
22.88,1891
23.16,1857
23.44,2786
23.72,2032
24,1739
24.28,1645
24.56,1736
24.84,1659
25.12,1729
25.4,1712
25.68,1650
25.96,1665
26.24,1696
26.52,1681
26.8,1638
27.08,1644
27.36,1697
27.64,1661
27.92,1856
28.2,3503
28.48,1853
28.76,1639
29.04,1662
29.32,1643
29.6,1584
29.88,1673
30.16,1667
30.44,1657
30.72,1773
31,4110
31.28,1721
31.56,1655
31.84,1671
32.12,1731
32.4,1592
32.68,1704
32.96,1692
33.24,1680
33.52,1847
33.8,2532
34.08,4347
34.36,1869
34.64,1788
34.92,1689
35.2,1791
35.48,2563
35.76,2090
36.04,1646
36.32,1719
36.6,1757
36.88,1743
37.16,1776
37.44,2941
37.72,2543
38,2658
38.28,1771
38.56,1754
38.84,1719
39.12,2132
39.4,3526
39.68,1816
39.96,1710
40.24,1692
40.52,1676
40.8,1656
41.08,1628
41.36,1646
41.64,1675
41.92,1693
42.2,1694
42.48,1656
42.76,1578
43.04,1562
43.32,1641
43.6,1589
43.88,1576
44.16,1613
44.44,1686
44.72,2516
45,1902
45.28,1681
45.56,1581
45.84,1645
46.12,1656
46.4,1756
46.68,2427
46.96,1989
47.24,1715
47.52,1632
47.8,1629
48.08,1664
48.36,1699
48.64,1616
48.92,1594
49.2,1643
49.48,1580
49.76,1513
50.04,1583
50.32,1631
50.6,1633
50.88,1608
51.16,1594
51.44,1592
51.72,1714
52,1591
52.28,1589
52.56,1613
52.84,1626
53.12,1640
53.4,1742
53.68,1965
53.96,1695
54.24,1665
54.52,1624
54.8,1614
55.08,1725
55.36,2140
55.64,2107
55.92,1655
56.2,1650
56.48,1645
56.76,1658
57.04,1598
57.32,1622
57.6,1663
57.88,1605
58.16,1722
58.44,1956
58.72,1847
59,1665
59.28,1840
59.56,2186
59.84,2268
60.12,2498
60.4,1829
60.68,1629
60.96,1592
61.24,1657
61.52,1654
61.8,1600
62.08,1664
62.36,1597
62.64,1578
62.92,1596
63.2,1549
63.48,1577
63.76,1609
64.04,1603
64.32,1640
64.6,1910
64.88,1914
65.16,1680
65.44,1635
65.72,1611
66,1665
66.28,1671
66.56,1663
66.84,1797
67.12,1798
67.4,1683
67.68,1580
67.96,1627
68.24,1649
68.52,1624
68.8,1691
69.08,1846
69.36,1911
69.64,1702
69.92,1736
70.2,1669
70.48,1686
70.76,1614
71.04,1679
71.32,1646
71.6,1668
71.88,1634
72.16,1664
72.44,1681
72.72,1712
73,1670
73.28,1671
73.56,1764
73.84,1939
74.12,1756
74.4,1598
74.68,1621
74.96,1721
75.24,2009
75.52,1961
75.8,1814
76.08,1682
76.36,1628
76.64,1574
76.92,1603
77.2,1564
77.48,1685
77.76,1952
78.04,1882
78.32,1674
78.6,1700
78.88,1820
79.16,1770
79.44,1648
79.72,1599
80,1688
80.28,1615
80.56,1629
80.84,1686
81.12,1630
81.4,1672
81.68,1613
81.96,1692
82.24,1896
82.52,1788
82.8,1682
83.08,1657
83.36,1710
83.64,1675
83.92,1704
84.2,1750
84.48,1674
84.76,1643
85.04,1724
85.32,1679
85.6,1663
85.88,1693
86.16,1787
86.44,1762
86.72,1566
87,1664
87.28,1635
87.56,1633
87.84,1685
88.12,1683
88.4,1687
88.68,1674
88.96,1694
89.24,1695
89.52,1671
89.8,1764
89.98,1731

File: 00-058-0292 (PD3).csv
16,3955
16.265,3957
16.53,3985
16.795,3973
17.06,3919
17.325,3948
17.59,4073
17.855,4093
18.12,4001
18.385,4032
18.65,4061
18.915,3979
19.18,3987
19.445,3976
19.71,3971
19.975,3993
20.24,4341
20.505,6295
20.77,5329
21.035,5534
21.3,6757
21.565,4625
21.83,3724
22.095,3402
22.36,3269
22.625,3160
22.89,3078
23.155,3093
23.42,3167
23.685,3145
23.95,3562
24.215,7062
24.48,3519
24.745,5875
25.01,2836
25.275,2780
25.54,3356
25.805,4758
26.07,2656
26.335,2586
26.6,2499
26.865,2577
27.13,2663
27.395,2775
27.66,2952
27.925,7720
28.19,3101
28.455,2551
28.72,2351
28.985,2283
29.25,2291
29.515,2724
29.78,5267
30.045,2441
30.31,2200
30.575,2332
30.84,2215
31.105,2203
31.37,2193
31.635,2291
31.9,2756
32.165,3113
32.43,7481
32.695,6093
32.96,9156
33.225,12092
33.49,3171
33.755,2373
34.02,2254
34.285,2316
34.55,2448
34.815,3110
35.08,4138
35.345,16876
35.61,8266
35.875,13392
36.14,10762
36.405,3829
36.67,2756
36.935,2315
37.2,2399
37.465,3287
37.73,14103
37.995,4387
38.26,2491
38.525,2103
38.79,2008
39.055,2104
39.32,2356
39.585,3817
39.85,8908
40.115,2565
40.38,2259
40.645,2579
40.91,4746
41.175,26232
41.44,3928
41.705,4038
41.97,2474
42.235,3270
42.5,7482
42.765,3451
43.03,2408
43.295,4275
43.56,2305
43.825,3362
44.09,5372
44.355,16942
44.62,7410
44.885,2676
45.15,1911
45.415,1693
45.68,1682
45.945,1638
46.21,1703
46.475,1896
46.74,5918
47.005,1976
47.27,1566
47.535,1450
47.8,1423
48.065,1461
48.33,1570
48.595,1561
48.86,1691
49.125,3742
49.39,1981
49.655,2042
49.92,1462
50.185,1344
50.45,1352
50.715,1439
50.98,1416
51.245,1362
51.51,1317
51.775,1329
52.04,1458
52.305,1847
52.57,1685
52.835,3432
53.1,1913
53.365,1771
53.63,4191
53.895,2191
54.16,1538
54.425,1328
54.69,1273
54.955,1281
55.22,1481
55.485,3120
55.75,1384
56.015,1285
56.28,1248
56.545,1387
56.81,1559
57.075,3688
57.34,2035
57.605,1776
57.87,3427
58.135,1647
58.4,2074
58.665,2697
58.93,2129
59.195,2697
59.46,1416
59.725,1255
59.99,1216
60.255,1278
60.52,1862
60.785,1241
61.05,1158
61.315,1179
61.58,1186
61.845,1158
62.11,1185
62.375,1161
62.64,1225
62.905,1313
63.17,1501
63.435,2141
63.7,5180
63.965,1838
64.23,1550
64.495,1731
64.76,1984
65.025,1779
65.29,2646
65.555,4046
65.82,9440
66.085,5530
66.35,2421
66.615,1792
66.88,1576
67.145,1797
67.41,2145
67.675,1382
67.94,1333
68.205,1419
68.47,1677
68.735,1693
69,2251
69.265,2847
69.53,2682
69.795,1605
70.06,1556
70.325,1521
70.59,1681
70.855,2981
71.12,1758
71.385,2495
71.65,3592
71.915,1551
72.18,1351
72.445,1351
72.71,1462
72.975,1786
73.24,4076
73.505,3800
73.77,1790
74.035,1638
74.3,2076
74.565,3543
74.83,1699
75.095,1539
75.36,1695
75.625,3464
75.89,2244
76.155,2528
76.42,2035
76.685,2226
76.95,1636
77.215,1359
77.48,1498
77.745,1424
78.01,1412
78.275,1521
78.54,1868
78.805,4551
79.07,1770
79.335,1511
79.6,1456
79.865,1748
80.13,2842
80.395,3464
80.66,3809
80.925,2460
81.19,1628
81.455,1978
81.72,1581
81.985,1306
82.25,1421
82.515,1619
82.78,1594
83.045,1373
83.31,1333
83.575,1297
83.84,1751
84.105,1537
84.37,1219
84.635,1137
84.9,1117
85.165,1145
85.43,1159
85.695,1276
85.96,1271
86.225,1217
86.49,1182
86.755,1124
87.02,1191
87.285,1255
87.55,1549
87.815,2046
88.08,2278
88.345,1753
88.61,1427
88.875,1575
89.14,2530
89.405,3486
89.67,1647
89.935,1349
90.2,1260
90.465,1192
90.73,1169
90.995,1183
91.26,1203
91.525,1332
91.79,1407
92.055,1442
92.32,1740
92.585,1671
92.85,1372
93.115,1268
93.38,1282
93.645,1379
93.91,1462
94.175,1664
94.44,3603
94.705,2054
94.94,1614

File: 00-058-0321 (PD3).csv
10,7055
10.32,6758
10.64,6692
10.96,6524
11.28,6296
11.6,6091
11.92,5725
12.24,5649
12.56,5563
12.88,5626
13.2,5415
13.52,5052
13.84,5194
14.16,5065
14.48,5240
14.8,5058
15.12,4893
15.44,4775
15.76,4428
16.08,4398
16.4,4313
16.72,4422
17.04,4326
17.36,4306
17.68,4362
18,4210
18.32,4088
18.64,4247
18.96,4316
19.28,5996
19.6,3950
19.92,3874
20.24,3844
20.56,3884
20.88,3715
21.2,3656
21.52,3798
21.84,3623
22.16,3636
22.48,3425
22.8,3560
23.12,3511
23.44,3501
23.76,3524
24.08,3573
24.4,3818
24.72,3554
25.04,3725
25.36,3758
25.68,4200
26,8916
26.32,31851
26.64,4649
26.96,4309
27.28,4544
27.6,4996
27.92,16401
28.24,4530
28.56,4389
28.88,4398
29.2,4181
29.52,3976
29.84,4085
30.16,4002
30.48,4111
30.8,4425
31.12,4286
31.44,4075
31.76,17836
32.08,4286
32.4,3620
32.72,3917
33.04,3798
33.36,3699
33.68,3309
34,5979
34.32,11348
34.64,3643
34.96,3663
35.28,4613
35.6,23090
35.92,3765
36.24,3313
36.56,3059
36.88,3108
37.2,3267
37.52,3217
37.84,3095
38.16,3220
38.48,3207
38.8,3481
39.12,4527
39.44,3719
39.76,3712
40.08,3887
40.4,3623
40.72,5775
41.04,3841
41.36,4643
41.68,3765
42,3705
42.32,3758
42.64,7378
42.96,8197
43.28,11536
43.6,4237
43.92,3778
44.24,3762
44.56,5547
44.88,6840
45.2,3600
45.52,3521
45.84,4481
46.16,3428
46.48,3465
46.8,3956
47.12,7623
47.44,3402
47.76,3201
48.08,3217
48.4,3237
48.72,4455
49.04,3847
49.36,2871
49.68,2900
50,3055
50.32,3306
50.64,2709
50.96,3214
51.28,5118
51.6,2923
51.92,2580
52.24,2600
52.56,3026
52.88,7177
53.2,3022
53.52,2521
53.84,4078
54.16,3286
54.48,3897
54.8,3022
55.12,3930
55.44,3003
55.76,2643
56.08,2352
56.4,2696
56.72,3639
57.04,4214
57.36,4101
57.68,3821
58,2986
58.32,3709
58.64,2603
58.96,2329
59.28,2399
59.6,2362
59.92,2409
60.24,2620
60.56,2775
60.88,2607
61.2,3161
61.52,5662
61.84,4745
62.16,2801
62.48,2481
62.8,2537
63.12,2765
63.44,4695
63.76,2857
64.08,2494
64.4,2438
64.72,2359
65.04,2494
65.36,3148
65.68,2521
66,2554
66.32,2943
66.64,2788
66.96,2531
67.28,2801
67.6,4933
67.92,5530
68.24,3042
68.56,3234
68.88,5332
69.2,5639
69.52,2953
69.84,2798
70.16,3016
70.48,2758
70.8,2415
71.12,2488
71.44,2484
71.76,2673
72.08,3544
72.4,2775
72.72,2560
73.04,2524
73.36,3230
73.68,3372
74,3036
74.32,5583
74.64,5834
74.96,4699
75.28,3471
75.6,2630
75.92,2438
76.24,2494
76.56,2442
76.88,2392
77.2,2428
77.52,2488
77.84,2887
78.16,3184
78.48,4115
78.8,4455
79.12,3550
79.44,2607
79.76,2570
80.08,3339
80.4,3877
80.72,3059
81.04,2531
81.36,2481
81.68,2511
82,3174
82.32,2857
82.64,2498
82.96,2468
83.28,2484
83.6,2418
83.92,2620
84.24,3240
84.56,3059
84.88,2547
85.2,2725
85.52,2778
85.84,2501
86.16,2600
86.48,2428
86.8,2653
87.12,2455
87.44,2366
87.76,2343
88.08,2359
88.4,2706
88.72,2527
89.04,2630
89.36,3144
89.68,2679
90,2267
90.32,2425
90.64,2369
90.96,2557
91.28,2379
91.6,2343
91.92,2260
92.24,2313
92.56,2323
92.88,2435
93.2,2277
93.52,2372
93.84,2316
94.16,2405
94.48,2517
94.8,3593
95.12,3936
95.44,3105
95.76,2682
96.08,2623
96.4,2742
96.72,2587
97.04,2432
97.36,2560
97.68,2666
98,2560
98.32,2508
98.64,2465
98.96,2488
99.28,2649
99.6,2821
99.92,2636
100,2620

File: 00-058-0342 (PD3).csv
10,1850
10.29,1872
10.58,1838
10.87,1828
11.16,1988
11.45,1803
11.74,1740
12.03,1823
12.32,1687
12.61,1774
12.9,1828
13.19,1741
13.48,1761
13.77,1702
14.06,1665
14.35,1706
14.64,1651
14.93,1606
15.22,1642
15.51,1618
15.8,1652
16.09,1623
16.38,1583
16.67,2224
16.96,1599
17.25,1585
17.54,1561
17.83,1574
18.12,1574
18.41,1571
18.7,1536
18.99,1541
19.28,1511
19.57,1516
19.86,1459
20.15,1508
20.44,1511
20.73,1665
21.02,1596
21.31,1417
21.6,1668
21.89,1852
22.18,1534
22.47,1444
22.76,1458
23.05,1469
23.34,1435
23.63,1390
23.92,1384
24.21,1420
24.5,1408
24.79,1343
25.08,2529
25.37,1389
25.66,3421
25.95,1413
26.24,1329
26.53,1354
26.82,1538
27.11,1434
27.4,2039
27.69,1413
27.98,1315
28.27,1260
28.56,1239
28.85,1268
29.14,1256
29.43,1306
29.72,2402
30.01,1363
30.3,2044
30.59,1496
30.88,1264
31.17,1201
31.46,1203
31.75,1252
32.04,1250
32.33,1138
32.62,1164
32.91,4177
33.2,1806
33.49,4916
33.78,2918
34.07,1210
34.36,1129
34.65,1162
34.94,1799
35.23,9598
35.52,1307
35.81,1182
36.1,1709
36.39,1108
36.68,1193
36.97,1833
37.26,2692
37.55,1851
37.84,2293
38.13,1197
38.42,2298
38.71,1096
39,1044
39.29,1031
39.58,1113
39.87,1007
40.16,1084
40.45,1009
40.74,1089
41.03,1052
41.32,1114
41.61,1720
41.9,1115
42.19,1197
42.48,1311
42.77,5128
43.06,1779
43.35,1168
43.64,1335
43.93,1185
44.22,2442
44.51,2889
44.8,1144
45.09,1200
45.38,1820
45.67,1141
45.96,1043
46.25,1097
46.54,1020
46.83,1006
47.12,1222
47.41,1153
47.7,1177
47.99,1157
48.28,999
48.57,987
48.86,1016
49.15,936
49.44,946
49.73,960
50.02,1007
50.31,1242
50.6,1668
50.89,997
51.18,895
51.47,1309
51.76,1194
52.05,1034
52.34,1742
52.63,1872
52.92,1082
53.21,1705
53.5,1048
53.79,1020
54.08,983
54.37,1188
54.66,987
54.95,974
55.24,977
55.53,1462
55.82,1106
56.11,1078
56.4,1725
56.69,1007
56.98,970
57.27,1629
57.56,1138
57.85,968
58.14,1066
58.43,1380
58.72,1030
59.01,1244
59.3,977
59.59,1031
59.88,920
60.17,896
60.46,968
60.75,918
61.04,952
61.33,1049
61.62,903
61.91,943
62.2,912
62.49,967
62.78,913
63.07,894
63.36,1262
63.65,1444
63.94,932
64.23,1810
64.52,937
64.81,834
65.1,919
65.39,887
65.68,1064
65.97,978
66.26,915
66.55,882
66.84,905
67.13,1059
67.42,817
67.71,882
68,929
68.29,936
68.58,874
68.87,915
69.16,1024
69.45,895
69.74,1378
70.03,1762
70.32,1484
70.61,1364
70.9,1248
71.19,918
71.48,961
71.77,968
72.06,993
72.35,1397
72.64,1001
72.93,1167
73.22,1008
73.51,1512
73.8,986
74.09,1218
74.38,928
74.67,1763
74.96,1031
75.25,985
75.54,811
75.83,954
76.12,955
76.41,977
76.7,908
76.99,905
77.28,855
77.57,829
77.86,869
78.15,849
78.44,817
78.73,791
79.02,946
79.31,925
79.6,869
79.89,867
80.18,880
80.47,862
80.76,841
81.05,907
81.34,883
81.63,1131
81.92,930
82.21,859
82.5,833
82.79,808
83.08,886
83.37,1088
83.66,832
83.95,772
84.24,767
84.53,820
84.82,934
85.11,939
85.4,955
85.69,872
85.98,966
86.27,807
86.56,857
86.85,868
87.14,936
87.43,832
87.72,800
88.01,776
88.3,817
88.59,807
88.88,818
89.17,745
89.46,784
89.75,906
90.04,852
90.33,859
90.62,800
90.91,813
91.2,896
91.49,788
91.78,930
92.07,757
92.36,874
92.65,790
92.94,808
93.23,742
93.52,816
93.81,1021
94.1,801
94.39,846
94.68,886
94.97,809
94.99,794