Folder: spectrumdavit/data/xrd_icdd_PDF (part 15)

File: 00-067-0138 (PD3).csv
9.65786,213.28
10.10786,216.426
10.55786,203.061
11.00786,203.29
11.45786,208.111
11.90786,195.298
12.35786,189.142
12.80786,193.7836
13.25786,198.676
13.70786,191.919
14.15786,193.963
14.60786,187.253
15.05786,188.582
15.50786,189.354
15.95786,185.57
16.40786,189.689
16.85786,191.098
17.30786,192.433
17.75786,187.54
18.20786,196.013
18.65786,296.36
19.10786,207.027
19.55786,181.364
20.00786,178.311
20.45786,176.232
20.90786,175.457
21.35786,181.489
21.80786,184.138
22.25786,180.6793
22.70786,178.524
23.15786,174.422
23.60786,174.8653
24.05786,176.093
24.50786,175.815
24.95786,170.723
25.40786,168.962
25.85786,166.85
26.30786,172.364
26.75786,168.843
27.20786,170.079
27.65786,173.711
28.10786,215.6629
28.55786,682.4469
29.00786,918.564
29.45786,245.869
29.90786,167.869
30.35786,164.945
30.80786,165.601
31.25786,174.48
31.70786,181.799
32.15786,162.503
32.60786,154.789
33.05786,160.949
33.50786,166.709
33.95786,198.029
34.40786,260.049
34.85786,159.79
35.30786,157.256
35.75786,155.175
36.20786,157.155
36.65786,160.6771
37.10786,164.053
37.55786,249.258
38.00786,362.945
38.45786,186.216
38.90786,357.895
39.35786,1552.62
39.80786,884.324
40.25786,827.195
40.70786,184.105
41.15786,156.058
41.60786,155.871
42.05786,159.298
42.50786,161.102
42.95786,160.655
43.40786,397.141
43.85786,171.859
44.30786,154.963
44.75786,163.113
45.20786,278.6
45.65786,926.705
46.10786,184.361
46.55786,176.204
47.00786,745.973
47.45786,761.466
47.90786,171.1208
48.35786,150.266
48.80786,185.5803
49.25786,816.859
49.70786,167.198
50.15786,136.159
50.60786,135.789
51.05786,130.976
51.50786,129.959
51.95786,143.627
52.40786,127.633
52.85786,158.956
53.30786,157.364
53.75786,138.189
54.20786,191.185
54.65786,288.152
55.10786,134.761
55.55786,136.342
56.00786,143.7404
56.45786,525.404
56.90786,152.379
57.35786,143.041
57.80786,439.321
58.25786,508.498
58.70786,150.813
59.15786,135.387
59.60786,357.107
60.05786,143.67
60.50786,133.024
60.95786,132.856
61.40786,134.229
61.85786,131.687
62.30786,127.884
62.75786,134.763
63.20786,131.315
63.65786,132.114
64.10786,149.611
64.55786,620.643
65.00786,276.572
65.45786,190.005
65.90786,129.839
66.35786,126.952
66.80786,133.78
67.25786,141.774
67.70786,552.313
68.15786,144.349
68.60786,132.573
69.05786,254.463
69.50786,354.029
69.95786,142.198
70.40786,168.255
70.85786,295.836
71.30786,698.4
71.75786,153.749
72.20786,321.187
72.65786,128.372
73.10786,121.41
73.55786,127.901
74.00786,166.164
74.45786,795.173
74.90786,161.68
75.35786,373.223
75.80786,169.008
76.25786,1044.32
76.70786,430.7437
77.15786,148.168
77.60786,149.632
78.05786,803.975
78.50786,153.685
78.95786,134.9106
79.40786,538.655
79.85786,207.486
80.30786,136.251
80.75786,388.412
81.20786,165.863
81.65786,129.372
82.10786,217.718
82.55786,250.638
83.00786,121.405
83.45786,117.846
83.90786,128.296
84.35786,626.197
84.80786,148.551
85.25786,123.287
85.70786,145.119
86.15786,133.487
86.60786,141.515
87.05786,120.042
87.50786,130.766
87.95786,569.347
88.40786,145.755
88.85786,119.239
89.30786,119.104
89.75786,119.415
90.20786,144.318
90.65786,475.091
91.10786,262.512
91.55786,178.302
92.00786,124.311
92.45786,120.484
92.90786,112.201
93.35786,114.522
93.80786,112.208
94.25786,114.89
94.70786,125.198
95.15786,251.594
95.60786,181.006
96.05786,123.944
96.50786,193.9099
96.95786,121.04
97.40786,121.448
97.85786,253.791
98.30786,122.6491
98.75786,136.319
99.20786,404.757
99.65786,510.64
100.108,145.259
100.558,133.866
101.008,214.272
101.458,132.166
101.908,119.864
102.358,118.246
102.808,118.753
103.258,115.288
103.708,118.284
104.158,125.392
104.608,124.072
105.058,146.802
105.508,428.3
105.958,160.057
106.408,249.783
106.858,132.745
107.308,131.212
107.758,169.284
108.208,770.42
108.658,177.969
109.108,487.53
109.558,445.407
110.008,208.954
110.458,154.9814
110.908,598.018
111.358,141.074
111.808,171.439
112.258,124.229
112.708,186.63
113.158,125.336
113.608,122.103
114.058,122.006
114.508,149.574
114.958,134.056
115.408,122.074
115.858,124.414
116.308,132.788
116.758,192.6767
117.208,1896.04
117.658,239.466
118.108,148.823
118.558,152.414
119.008,387.749
119.458,142.623
119.908,141.451
120.358,243.226
120.808,261.417
121.258,135.668
121.708,154.207
122.158,783.302
122.608,260.825
123.058,135.316
123.508,127.961
123.958,190.861
124.408,126.038
124.858,124.309
125.308,122.782
125.758,130.326
126.208,178.243
126.658,695.601
127.108,168.762
127.558,237.986
128.008,651.245
128.458,464.936
128.908,149.36
129.358,137.339
129.808,133.489
130.258,129.997
130.508,133.602

File: 00-067-0215 (PD3).csv
10,11400
10.37485,11679
10.74971,11696
11.12456,11575
11.49941,11719
11.87426,11761
12.24912,11605
12.62397,11022
12.99882,10661
13.37368,10375
13.74853,9784
14.12338,9274
14.49823,8763
14.87309,8110
15.24794,7690
15.62279,7052
15.99765,6724
16.3725,18730
16.74735,6221
17.12221,5558
17.49706,5593
17.87191,6315
18.24676,5686
18.62162,10172
18.99647,4735
19.37132,4308
19.74618,4045
20.12103,4222
20.49588,6822
20.87073,4078
21.24559,3553
21.62044,3315
21.99529,3187
22.37015,3147
22.745,3079
23.11985,2967
23.4947,2881
23.86956,2985
24.24441,17993
24.61926,2829
24.99412,2520
25.36897,2408
25.74382,2269
26.11867,2224
26.49353,2106
26.86838,2043
27.24323,1998
27.61809,2027
27.99294,1910
28.36779,2388
28.74264,2131
29.1175,1650
29.49235,1682
29.8672,1704
30.24206,1610
30.61691,1543
30.99176,3828
31.36662,5141
31.74147,1555
32.11632,1470
32.49117,1910
32.86603,10741
33.24088,11814
33.61573,1247
33.99059,1168
34.36544,1354
34.74029,1097
35.11514,1220
35.49,1089
35.86485,4512
36.2397,1217
36.61456,998
36.98941,1016
37.36426,1280
37.73911,15094
38.11397,2114
38.48882,12835
38.86367,877
39.23853,919
39.61338,1637
39.98823,1137
40.36308,755
40.73794,743
41.11279,954
41.48764,1290
41.8625,2415
42.23735,1093
42.6122,706
42.98706,665
43.36191,3594
43.73676,623
44.11161,594
44.48647,650
44.86132,548
45.23617,560
45.61103,582
45.98588,4021
46.36073,739
46.73558,561
47.11044,586
47.48529,980
47.86014,920
48.235,4101
48.60985,1156
48.9847,639
49.35955,3371
49.73441,4197
50.10926,985
50.48411,2901
50.85897,3110
51.23382,707
51.60867,501
51.98352,512
52.35838,531
52.73323,521
53.10808,1805
53.48294,2533
53.85779,699
54.23264,1832
54.6075,6637
54.98235,2543
55.3572,1792
55.73205,2780
56.10691,1326
56.48176,2159
56.85661,559
57.23147,1824
57.60632,935
57.98117,1383
58.35602,515
58.73088,1398
59.10573,1330
59.48058,423
59.85544,1599
60.23029,660
60.60514,590
60.97999,389
61.35485,381
61.7297,391
62.10455,414
62.47941,428
62.85426,615
63.22911,560
63.60396,849
63.97882,798
64.35367,650
64.72852,1472
65.10338,1209
65.47823,1440
65.85308,3323
66.22794,827
66.60279,1025
66.97764,710
67.35249,1029
67.72735,1894
68.1022,1114
68.47705,1990
68.85191,2146
69.22676,679
69.60161,740
69.97646,1041
70.35132,613
70.72617,333
71.10102,321
71.47588,899
71.85073,1498
72.22558,585
72.60043,916
72.97529,1082
73.35014,517
73.72499,350
74.09985,388
74.4747,366
74.84955,312
75.2244,481
75.59926,495
75.97411,730
76.34896,1051
76.72382,525
77.09867,1071
77.47352,1128
77.84837,549
78.22323,875
78.59808,958
78.97293,348
79.34779,328
79.72264,656
80.09749,737
80.47235,618
80.8472,820
81.22205,583
81.5969,553
81.97176,416
82.34661,1072
82.72146,472
83.09632,590
83.47117,597
83.84602,506
84.22087,591
84.59573,890
84.97058,448
85.34543,529
85.72029,485
86.09514,842
86.46999,457
86.84484,607
87.2197,421
87.59455,386
87.9694,531
88.34426,603
88.71911,365
89.09396,668
89.46881,716
89.84367,917
90.21852,1349
90.59337,1017
90.96823,981
91.34308,828
91.71793,764
92.09279,447
92.46764,867
92.84249,701
93.21734,623
93.5922,859
93.96705,1444
94.3419,979
94.71676,1173
95.09161,1113
95.46646,924
95.84131,490
96.21617,744
96.59102,501
96.96587,411
97.34073,644
97.71558,458
98.09043,356
98.46528,281
98.84014,278
99.21499,380
99.58984,378
99.9647,435
100.34,371
100.7144,498
101.089,675
101.464,583
101.839,340
102.214,486
102.589,831
102.964,762
103.338,631
103.713,525
104.088,368
104.463,518
104.838,563
105.213,631
105.587,465
105.962,921
106.3372,1012
106.712,1138
107.0869,777
107.462,494
107.837,608
108.211,1048
108.586,781
108.961,807
109.336,803
109.711,701
110.086,530
110.461,852
110.835,673
111.21,372
111.585,400
111.96,444
112.335,449
112.71,384
113.085,495
113.4594,811
113.834,556
114.209,578
114.584,730
114.959,645
115.334,626
115.709,712
116.083,559
116.458,858
116.833,1076
117.208,1156
117.583,931
117.958,899
118.332,998
118.707,1009
119.082,665
119.457,526
119.8319,534
120.029,618

File: 00-067-0216 (PD3).csv
5.0167,4629
5.4127,4121
5.8087,3810
6.2047,3615
6.6007,3498
6.9967,3199
7.3927,3054
7.7887,2904
8.1847,2693
8.5807,2616
8.9767,2605
9.3727,2529
9.7687,2414
10.1647,2385
10.5607,2310
10.9567,2247
11.3527,2230
11.7487,2215
12.1447,2072
12.5407,2136
12.9367,1993
13.3327,2016
13.7287,1993
14.1247,1944
14.5207,1924
14.9167,1955
15.3127,1833
15.7087,1859
16.1047,1841
16.5007,1773
16.8967,1820
17.2927,1761
17.6887,1799
18.0847,1742
18.4807,1797
18.8767,1856
19.2727,3265
19.6687,1761
20.0647,1743
20.4607,1683
20.8567,1698
21.2527,1700
21.6487,1732
22.0447,1680
22.4407,1667
22.8367,1749
23.2327,1718
23.6287,1702
24.0247,1718
24.4207,1758
24.8167,1716
25.2127,1761
25.6087,1655
26.0047,1796
26.4007,1705
26.7967,1678
27.1927,1754
27.5887,1750
27.9847,1824
28.3807,1912
28.7767,2028
29.1727,3067
29.5687,9297
29.9647,2382
30.3607,1860
30.7567,1846
31.1527,3228
31.5487,1935
31.9447,1851
32.3407,1984
32.7367,1756
33.1327,2176
33.5287,1876
33.9247,1806
34.3207,1783
34.7167,1812
35.1127,1841
35.5087,4453
35.9047,1835
36.3007,1908
36.6967,1861
37.0927,1909
37.4887,1840
37.8847,1936
38.2807,1912
38.6767,1953
39.0727,1962
39.4687,1924
39.8647,1932
40.2607,2195
40.6567,3687
41.0527,2083
41.4487,1993
41.8447,1983
42.2407,2007
42.6367,1985
43.0327,2083
43.4287,2869
43.8247,2099
44.2207,2070
44.6167,2131
45.0127,2041
45.4087,2108
45.8047,2135
46.2007,2175
46.5967,2733
46.9927,2247
47.3887,2278
47.7847,2667
48.1807,3455
48.5767,2185
48.9727,2227
49.3687,2217
49.7647,2200
50.1607,2189
50.5567,2173
50.9527,2645
51.3487,2511
51.7447,2219
52.1407,2365
52.5367,2408
52.9327,2295
53.3287,2368
53.7247,2470
54.1207,2504
54.5167,5588
54.9127,2590
55.3087,2518
55.7047,2382
56.1007,2323
56.4967,2371
56.8927,2260
57.2887,2675
57.6847,2306
58.0807,2389
58.4767,2353
58.8727,2440
59.2687,2758
59.6647,2780
60.0607,6667
60.4567,2822
60.8527,2681
61.2487,3594
61.6447,2547
62.0407,2403
62.4367,2431
62.8327,2425
63.2287,2461
63.6247,2455
64.0207,2456
64.4167,2455
64.8127,2487
65.2087,2612
65.6047,2596
66.0007,2444
66.3967,2538
66.7927,2570
67.1887,2642
67.5847,2588
67.9807,2586
68.3767,2593
68.7727,2621
69.1687,2703
69.5647,2566
69.9607,2519
70.3567,2519
70.7527,2574
71.1487,2766
71.5447,2735
71.9407,2684
72.3367,2690
72.7327,2653
73.1287,2770
73.5247,2642
73.9207,2672
74.3167,2728
74.7127,2619
75.1087,2980
75.5047,2785
75.9007,2714
76.2967,3259
76.6927,2939
77.0887,2799
77.4847,2791
77.8807,4291
78.2767,2931
78.6727,2888
79.0687,2763
79.4647,2742
79.8607,2732
80.2567,3084
80.6527,2835
81.0487,2848
81.4447,2745
81.8407,2796
82.2367,2825
82.6327,3429
83.0287,3039
83.4247,3056
83.8207,3199
84.2167,2846
84.6127,2818
85.0087,2918
85.4047,2936
85.8007,3120
86.1967,3346
86.5927,2921
86.9887,3022
87.3847,3150
87.7807,2932
88.1767,2946
88.5727,2821
88.9687,2905
89.3647,2925
89.7607,3266
90.1567,3083
90.5527,2931
90.9487,3174
91.3447,2906
91.7407,2977
92.1367,2963
92.5327,2996
92.9287,3016
93.3247,2939
93.7207,2999
94.1167,3380
94.5127,3354
94.9087,3001
95.3047,2911
95.7007,2958
96.0967,2990
96.4927,2993
96.8887,3036
97.2847,2922
97.6807,2986
98.0767,3123
98.4727,3086
98.8687,3119
99.2647,3362
99.6607,3140
100.0567,3181
100.4527,3032
100.8487,2998
101.2447,2993
101.6407,3050
102.0367,3141
102.4327,3041
102.8287,3107
103.2247,3053
103.6207,3220
104.0167,3606
104.4127,3723
104.8087,3261
105.2047,3075
105.6007,3158
105.9967,3119
106.3927,3142
106.7887,3123
107.1847,3237
107.5807,3307
107.9767,3180
108.3727,3176
108.7687,3412
109.1647,3404
109.5607,3277
109.9567,3212
110.3527,3288
110.7487,3232
111.1447,3437
111.5407,3619
111.9367,3609
112.3327,3215
112.7287,3334
113.1247,3315
113.5207,3212
113.9167,3267
114.3127,3276
114.7087,3293
115.1047,3229
115.5007,3331
115.8967,3284
116.2927,3210
116.6887,3285
117.0847,3274
117.4807,3246
117.8767,3363
118.2727,3288
118.6687,3298
119.0647,3513
119.4607,3560
119.8567,3405
119.9887,3478

File: 00-067-0344 (PD3).csv
2.6127,38.03929
3.1127,38.91472
3.6127,42.1566
4.1127,86.76996
4.6127,427.426
5.1127,808.514
5.6127,975.65
6.1127,963.101
6.6127,896.668
7.1127,901.893
7.6127,822.879
8.1127,819.746
8.6127,736.922
9.1127,713.972
9.6127,699.089
10.1127,683.432
10.6127,641.375
11.1127,631.019
11.6127,617.295
12.1127,599.419
12.6127,623.157
13.1127,595.9679
13.6127,590.275
14.1127,583.519
14.6127,554.528
15.1127,582.731
15.6127,635.211
16.1127,631.622
16.6127,591.548
17.1127,590.375
17.6127,557.138
18.1127,625.423
18.6127,674.599
19.1127,610.899
19.6127,553.82
20.1127,574.341
20.6127,528.199
21.1127,554.217
21.6127,516.79
22.1127,521.72
22.6127,552.787
23.1127,550.9083
23.6127,547.714
24.1127,557.618
24.6127,593.699
25.1127,559.162
25.6127,586.449
26.1127,647.975
26.6127,665.318
27.1127,577.019
27.6127,531.015
28.1127,546.179
28.6127,508.211
29.1127,530.768
29.6127,558.464
30.1127,695.551
30.6127,1339.71
31.1127,1973.16
31.6127,763.878
32.1127,928.955
32.6127,655.956
33.1127,577.039
33.6127,627.686
34.1127,612.2766
34.6127,597.403
35.1127,611.25
35.6127,592.0656
36.1127,572.06
36.6127,774.652
37.1127,2234.08
37.6127,5145.03
38.1127,9272.43
38.6127,12419.9
39.1127,1278.04
39.6127,722.6
40.1127,589.1559
40.6127,624.918
41.1127,713.756
41.6127,1751.35
42.1127,7350.04
42.6127,5093.43
43.1127,708.839
43.6127,638.523
44.1127,759.663
44.6127,698.291
45.1127,741.2627
45.6127,1059.12
46.1127,671.441
46.6127,542.857
47.1127,542.921
47.6127,534.185
48.1127,566.557
48.6127,833.046
49.1127,2208.34
49.6127,1236.9
50.1127,2012.33
50.6127,2873.8
51.1127,2186.23
51.6127,693.57
52.1127,573.808
52.6127,704.71
53.1127,949.0554
53.6127,630.532
54.1127,1104.04
54.6127,1334.88
55.1127,1376.81
55.6127,626.04
56.1127,752.183
56.6127,2469.86
57.1127,1235.47
57.6127,1089.98
58.1127,1839.83
58.6127,595.754
59.1127,561.494
59.6127,578.7
60.1127,607.789
60.6127,798.926
61.1127,1696.21
61.6127,4199.94
62.1127,3629.56
62.6127,799.079
63.1127,653.903
63.6127,635.705
64.1127,996.836
64.6127,4201.36
65.1127,1076.96
65.6127,624.848
66.1127,751.686
66.6127,3036.67
67.1127,3709.51
67.6127,1917.69
68.1127,1007.01
68.6127,594.508
69.1127,578.5908
69.6127,575.232
70.1127,679.122
70.6127,925.6692
71.1127,3226.66
71.6127,2004.45
72.1127,723.58
72.6127,616.6746
73.1127,637.729
73.6127,835.119
74.1127,633.022
74.6127,632.298
75.1127,676.592
75.6127,619.606
76.1127,2552.41
76.6127,2016.28
77.1127,650.796
77.6127,680.814
78.1127,575.4141
78.6127,719.873
79.1127,2662.15
79.6127,3250.66
80.1127,1913.55
80.6127,4569.95
81.1127,7519.83
81.6127,1253.31
82.1127,770.258
82.6127,2431.09
83.1127,2603.46
83.6127,1250.99
84.1127,677.711
84.6127,3191.93
85.1127,1541.98
85.6127,1540.32
86.1127,1222.2
86.6127,3960.24
87.1127,826.933
87.6127,800.112
88.1127,689.869
88.6127,1320.68
89.1127,722.81
89.6127,1071.11
90.1127,929.116
90.6127,779.364
91.1127,711.0743
91.6127,671.736
92.1127,2167.37
92.6127,2374.48
93.1127,1561.4
93.6127,880.479
94.1127,725.767
94.6127,1914.36
95.1127,1682.77
95.6127,1152.45
96.1127,611.803
96.6127,732.783
97.1127,821.321
97.6127,2025.97
98.1127,2000.22
98.6127,1057.73
99.1127,2766.34
99.6127,749.5421
100.1127,768.398
100.6127,1021.1
101.1127,884.017
101.6127,964.415
102.1127,687.101
102.6127,1811.46
103.1127,1945.72
103.6127,953.219
104.1127,649.196
104.6127,662.2326
105.1127,934.773
105.6127,633.641
106.1127,793.62
106.6127,2376.71
107.1127,3410.53
107.6127,1198.25
108.1127,1392.55
108.6127,677.848
109.1127,599.327
109.6127,602.54
110.1127,696.014
110.6127,622.335
111.1127,625.778
111.6127,623.808
112.1127,1046.28
112.6127,1899.71
113.1127,2519.16
113.6127,886.697
114.1127,630.86
114.6127,659.51
115.1127,832.461
115.6127,1509.52
116.1127,1248.86
116.6127,2726.69
117.1127,2612.38
117.6127,1402.52
118.1127,1232.33
118.6127,864.425
119.1127,876.963
119.6127,903.464
120.1127,2378.78
120.6127,4853.42
121.1127,2831.56
121.6127,968.985
122.1127,2918.19
122.6127,1650.78
123.1127,1246.58
123.6127,4235.58
124.1127,1276.9
124.6127,716.835
125.1127,668.244
125.6127,770.07
126.1127,1684.18
126.6127,1421.72
127.1127,2460.47
127.6127,1169.01
128.1127,947.866
128.6127,1161.7
129.1127,765.418
129.6127,1522.4
130.1127,2519.07
130.6127,1660.01
131.1127,1072.48
131.6127,1029.72
132.1127,1405.76
132.6127,1828.38
133.1127,984.923
133.6127,786.572
134.1127,1770.66
134.6127,3750.57
135.1127,2203.25
135.6127,943.012
136.1127,684.7005
136.6127,648.107
137.1127,652.478
137.6127,758.675
138.1127,967.396
138.6127,1856.58
139.1127,2204.15
139.6127,1208.85
140.1127,634.096
140.3627,806.469

File: 00-067-0510 (PD3).csv
3.88125,3838.19
4.38125,3609.28
4.88125,3404.3
5.38125,3369.64
5.88125,3131.44
6.38125,3053.77
6.88125,2810.231
7.38125,2886.22
7.88125,2706
8.38125,2625.12
8.88125,2575.43
9.38125,2655.58
9.88125,2512.6
10.38125,2482.997
10.88125,2389.73
11.38125,4781.63
11.88125,2695.77
12.38125,2219.14
12.88125,2389.53
13.38125,2438.23
13.88125,2149.27
14.38125,2307.43
14.88125,2194.45
15.38125,2280.93
15.88125,2159.26
16.38125,2227.53
16.88125,2151.68
17.38125,2254.13
17.88125,2033.65
18.38125,2132.15
18.88125,2108.29
19.38125,2159.63
19.88125,2040.82
20.38125,2130.58
20.88125,2064.23
21.38125,2111.48
21.88125,2054.76
22.38125,2742.36
22.88125,1956.1
23.38125,2031.63
23.88125,1989.47
24.38125,1989.3
24.88125,2045.68
25.38125,2069.29
25.88125,2052.49
26.38125,2049.84
26.88125,2498.9
27.38125,4205.13
27.88125,2737.87
28.38125,2026.27
28.88125,2011.09
29.38125,2075.18
29.88125,2329.61
30.38125,2063.22
30.88125,2281.78
31.38125,4830.21
31.88125,2036.48
32.38125,2045.67
32.88125,1989.35
33.38125,1944.12
33.88125,2045.54
34.38125,2124.59
34.88125,2127.93
35.38125,3680.79
35.88125,28114.7
36.38125,5920.98
36.88125,7809.18
37.38125,2390.72
37.88125,14918.8
38.38125,2371.54
38.88125,2498.04
39.38125,19526.5
39.88125,3114.31
40.38125,2090.52
40.88125,2100.35
41.38125,2036.49
41.88125,2033.21
42.38125,2134.72
42.88125,2060.17
43.38125,4161.47
43.88125,2644.7
44.38125,17931.1
44.88125,3529.37
45.38125,7513.54
45.88125,2788.89
46.38125,4988.49
46.88125,2369.14
47.38125,2783.42
47.88125,7713.66
48.38125,3080.66
48.88125,2038.6
49.38125,2184.25
49.88125,2424.12
50.38125,2094.56
50.88125,6714
51.38125,2096.08
51.88125,2003.5
52.38125,2079.33
52.88125,3379.75
53.38125,1996.5
53.88125,2027.47
54.38125,2247.75
54.88125,2107.95
55.38125,3115.03
55.88125,4038.5
56.38125,4957.33
56.88125,5336.76
57.38125,2151.04
57.88125,2261.42
58.38125,3441.88
58.88125,4211.52
59.38125,3223.18
59.88125,7349.28
60.38125,2823.38
60.88125,2619.46
61.38125,2235.8
61.88125,2610.29
62.38125,3209.16
62.88125,2130.85
63.38125,2252.43
63.88125,3747.53
64.38125,4800.01
64.88125,7214.34
65.38125,5741.31
65.88125,3223.63
66.38125,2892.98
66.88125,2198.54
67.38125,2822.96
67.88125,2808.96
68.38125,2214.55
68.88125,3125.95
69.38125,5573.52
69.88125,2326.8
70.38125,2241.91
70.88125,2316.48
71.38125,2937.51
71.88125,5448.38
72.38125,2281.08
72.88125,2360.43
73.38125,6575.47
73.88125,6560.97
74.38125,6920.94
74.88125,5233.62
75.38125,2532.52
75.88125,9918.82
76.38125,5124.8
76.88125,3895.953
77.38125,3592.3
77.88125,3827.94
78.38125,6147.84
78.88125,2206.61
79.38125,2433
79.88125,2573.09
80.38125,2033.96
80.88125,2979.85
81.38125,2126.81
81.88125,2335.27
82.38125,2316.57
82.88125,2766.83
83.38125,6458.75
83.88125,3439.88
84.38125,7316.74
84.88125,2399.82
85.38125,2179.25
85.88125,2555.63
86.38125,4677.13
86.88125,2167.99
87.38125,2381.37
87.88125,2233.16
88.38125,2063.89
88.88125,2916.86
89.38125,2945.11
89.88125,2302.91
90.38125,2941.75
90.88125,3212
91.38125,4074.08
91.88125,3001.6
92.38125,3089.29
92.88125,3365.18
93.38125,3291.29
93.88125,3999.91
94.38125,2791.04
94.88125,4419.73
95.38125,3870.77
95.88125,2517.34
96.38125,2761.23
96.88125,2720.05
97.38125,6429.47
97.88125,12906.2
98.38125,3706.45
98.88125,2986.11
99.38125,5524.13
99.88125,8676.71
100.381,3092.98
100.881,2838.27
101.381,2997.56
101.881,3006.66
102.381,4451.7
102.881,2855.14
103.381,2766.95
103.881,5895.598
104.381,6324.77
104.881,5912.86
105.381,4948.37
105.881,4407.86
106.381,4301.68
106.881,3397.05
107.381,5284.59
107.881,6073.13
108.381,4333.06
108.881,3596.46
109.381,4008.83
109.881,4003.01
110.381,7584.9
110.881,2924.64
111.381,2624.25
111.881,2886.4
112.381,3136.66
112.881,4921.77
113.381,3436.33
113.881,2798.99
114.381,3509.38
114.881,2690.06
115.381,3980.24
115.881,4434.9
116.381,3351.11
116.881,3922.34
117.381,3451.76
117.881,6878.08
118.381,4495.05
118.881,3636.59
119.381,6408.61
119.881,6240.52
120.381,3857.4
120.881,3015.02
121.381,2897.87
121.881,3692.08
122.381,4965.8
122.881,2972.88
123.381,3009.78
123.881,3497.78
124.381,3682.77
124.881,5801.63
125.381,4752.46
125.881,9179.7
126.381,4079.59
126.881,3005.68
127.381,2803.84
127.881,2922.62
128.381,2870.52
128.881,3039.7
129.381,3354.51
129.881,3413.68
130.381,5392.98
130.881,7515.29
131.381,3882.43
131.881,3091.44
132.381,3642.44
132.881,3660.14
133.381,3306.51
133.881,4265.27
134.381,6115.22
134.881,6058.28
135.381,3528.52
135.881,3498.63
136.381,3014.38
136.881,3866.66
137.381,3261.11
137.881,4110.25
138.381,3821.1
138.881,3647.63
139.381,3988.55
139.881,3023.14
140.381,2977
140.881,2893.44
141.381,2905.96
141.881,3001.47
142.381,3034.57
142.881,3410.45
143.381,3339.78
143.881,4311.53
144.381,5771.32
144.881,3715.69
145.381,3226.93
145.881,3078.53
146.381,3014.66
146.881,3484.07
147.381,3970.98
147.881,3939.91
148.381,4033.55
148.881,4219.13
149.381,4909.8
149.681,4239.97

File: 00-067-0714 (PD3).csv
5.011,1537
5.453,1474
5.895,1738
6.337,8328
6.779,1391
7.221,1202
7.663,1079
8.105,959
8.547,901
8.989,899
9.431,869
9.873,800
10.315,809
10.757,839
11.199,809
11.641,793
12.083,787
12.525,743
12.967,721
13.409,700
13.851,711
14.293,684
14.735,687
15.177,654
15.619,758
16.061,682
16.503,657
16.945,635
17.387,676
17.829,678
18.271,658
18.713,781
19.155,3964
19.597,877
20.039,634
20.481,665
20.923,632
21.365,674
21.807,681
22.249,710
22.691,3828
23.133,718
23.575,724
24.017,644
24.459,780
24.901,1339
25.343,15709
25.785,44487
26.227,1250
26.669,911
27.111,819
27.553,761
27.995,774
28.437,627
28.879,655
29.321,606
29.763,600
30.205,698
30.647,960
31.089,3585
31.531,1074
31.973,660
32.415,3125
32.857,649
33.299,547
33.741,629
34.183,514
34.625,463
35.067,496
35.509,551
35.951,486
36.393,524
36.835,944
37.277,479
37.719,458
38.161,460
38.603,464
39.045,686
39.487,1999
39.929,684
40.371,897
40.813,5151
41.255,695
41.697,580
42.139,548
42.581,517
43.023,477
43.465,575
43.907,592
44.349,4191
44.791,817
45.233,4793
45.675,810
46.117,1866
46.559,600
47.001,538
47.443,510
47.885,486
48.327,523
48.769,1047
49.211,517
49.653,466
50.095,552
50.537,762
50.979,527
51.421,884
51.863,2736
52.305,815
52.747,638
53.189,1156
53.631,487
54.073,469
54.515,463
54.957,466
55.399,468
55.841,482
56.283,890
56.725,727
57.167,444
57.609,486
58.051,411
58.493,410
58.935,379
59.377,393
59.819,401
60.261,375
60.703,826
61.145,495
61.587,389
62.029,400
62.471,591
62.913,721
63.355,449
63.797,423
64.239,511
64.681,913
65.123,1632
65.565,742
66.007,695
66.449,447
66.891,416
67.333,400
67.775,474
68.217,461
68.659,396
69.101,450
69.543,491
69.985,464
70.427,946
70.869,738
71.311,567
71.753,695
72.195,927
72.637,474
73.079,595
73.521,751
73.963,475
74.405,428
74.847,474
75.289,427
75.731,907
76.173,441
76.615,512
77.057,421
77.499,369
77.941,393
78.383,490
78.825,525
79.267,890
79.709,469
80.151,368
80.593,414
81.035,406
81.477,444
81.919,716
82.361,676
82.803,546
83.245,443
83.687,520
84.129,721
84.571,445
85.013,416
85.455,384
85.897,425
86.339,477
86.781,409
87.223,680
87.665,447
88.107,586
88.549,597
88.991,508
89.433,414
89.875,378
90.317,398
90.759,515
91.201,557
91.643,461
92.085,837
92.527,605
92.969,397
93.411,408
93.853,376
94.295,395
94.737,465
95.179,378
95.621,417
96.063,466
96.505,531
96.947,767
97.389,582
97.831,484
98.273,570
98.715,670
99.157,449
99.599,411
100.041,402
100.483,461
100.925,392
101.367,433
101.809,407
102.251,424
102.693,406
103.135,421
103.577,622
104.019,527
104.461,416
104.903,468
105.345,493
105.787,394
106.229,434
106.671,411
107.113,426
107.555,400
107.997,420
108.439,480
108.881,535
109.323,468
109.765,465
110.207,405
110.649,419
111.091,398
111.533,460
111.975,454
112.417,521
112.859,457
113.301,469
113.743,569
114.185,662
114.627,539
115.069,535
115.511,713
115.953,613
116.395,570
116.837,487
117.279,559
117.721,656
118.163,543
118.605,483
119.047,456
119.489,434
119.931,423
120.373,429
120.815,456
121.257,512
121.699,616
122.141,558
122.583,603
123.025,607
123.467,579
123.909,457
124.351,396
124.793,450
125.235,486
125.677,473
126.119,526
126.561,461
127.003,466
127.445,498
127.887,485
128.329,440
128.771,387
129.213,442
129.655,400
130.097,408
130.539,418
130.981,434
131.423,433
131.865,449
132.307,477
132.749,487
133.191,621
133.633,590
134.075,537
134.517,489
134.959,482
134.976,491