Folder: spectrumdavit/data/xrd_icdd_PDF (part 7)

File: 00-060-0123 (PD3).csv
4.77366,3127.61
5.09366,2971.2
5.41366,2953.43
5.73366,2849.17
6.05366,2986.62
6.37366,2881.84
6.69366,2810.19
7.01366,2933.41
7.33366,2680.5
7.65366,2740.84
7.97366,2758.1
8.29366,2885.31
8.61366,2706.1
8.93366,2659.01
9.25366,2721.02
9.57366,2742.03
9.89366,2733.22
10.21366,2553.25
10.53366,2623.04
10.85366,2736.98
11.17366,2708.78
11.49366,2799.59
11.81366,2549.93
12.13366,2630.16
12.45366,2551.87
12.77366,2665.12
13.09366,2710.44
13.41366,2773.26
13.73366,2788.43
14.05366,2644.4
14.37366,2779.9
14.69366,2741.01
15.01366,2542.5
15.33366,2712.83
15.65366,2630.63
15.97366,2672.31
16.29366,2612.24
16.61366,2774.46
16.93366,2731.13
17.25366,2602.89
17.57366,2738.11
17.89366,2519.24
18.21366,2652.15
18.53366,4336.11
18.85366,2779.43
19.17366,2552.99
19.49366,2706.95
19.81366,2662.86
20.13366,2625.57
20.45366,2562.3
20.77366,2792.4
21.09366,2730.91
21.41366,2752.66
21.73366,2654.65
22.05366,2595.36
22.37366,2540.3
22.69366,2534.31
23.01366,2688.35
23.33366,2962.19
23.65366,4584.56
23.97366,4261.71
24.29366,3072.62
24.61366,2722.81
24.93366,2625.94
25.25366,2673.63
25.57366,2629.27
25.89366,2578.99
26.21366,2787.05
26.53366,2616.32
26.85366,2624.44
27.17366,2645.75
27.49366,2735.65
27.81366,2589.67
28.13366,2650.14
28.45366,2744.97
28.77366,2669.39
29.09366,2552.22
29.41366,2538.53
29.73366,2667.86
30.05366,2628.75
30.37366,2663.62
30.69366,2868.88
31.01366,5515.77
31.33366,4465.33
31.65366,2865.95
31.97366,2753.61
32.29366,2698.05
32.61366,2667.95
32.93366,2685.42
33.25366,2832.16
33.57366,2493.34
33.89366,2613.21
34.21366,2664.07
34.53366,2743.87
34.85366,2778.5
35.17366,2927.13
35.49366,3319.46
35.81366,16037
36.13366,5409.23
36.45366,18284
36.77366,4476.58
37.09366,3089.51
37.41366,3127.06
37.73366,6606.34
38.05366,2989.64
38.37366,2632.45
38.69366,2724.08
39.01366,2653.97
39.33366,2694.67
39.65366,2528.98
39.97366,2716.66
40.29366,2667.49
40.61366,2607.03
40.93366,2640.02
41.25366,2739.41
41.57366,2662.89
41.89366,2675.73
42.21366,2721.1
42.53366,2694.54
42.85366,2702.46
43.17366,2691.67
43.49366,2661.8
43.81366,2843.91
44.13366,2901.14
44.45366,5033.18
44.77366,6087.77
45.09366,3248.63
45.41366,2787.76
45.73366,2820.25
46.05366,2513.53
46.37366,2827.8
46.69366,2659.05
47.01366,2655.63
47.33366,2593.32
47.65366,2565.72
47.97366,2697.27
48.29366,2683.48
48.61366,3075.13
48.93366,2879.61
49.25366,2718.1
49.57366,2985.18
49.89366,2868.42
50.21366,2644.41
50.53366,2686.45
50.85366,2656.71
51.17366,6524.98
51.49366,2814.62
51.81366,2739.81
52.13366,2619.46
52.45366,2623.73
52.77366,3051.64
53.09366,7596.56
53.41366,2931.3
53.73366,2757.33
54.05366,2568.24
54.37366,2625.64
54.69366,2742.83
55.01366,2582.44
55.33366,2711.17
55.65366,2598.86
55.97366,2582.89
56.29366,2669.44
56.61366,2645.2
56.93366,2678.56
57.25366,2647.51
57.57366,2671.61
57.89366,2996.46
58.21366,3626.88
58.53366,11646.6
58.85366,3554.93
59.17366,3002.98
59.49366,2928.68
59.81366,5927.94
60.13366,2874.73
60.45366,2616.64
60.77366,2717.7
61.09366,2544.37
61.41366,2605.53
61.73366,2652.8
62.05366,2658.11
62.37366,2630.5
62.69366,2672.67
63.01366,2635.56
63.33366,2555.43
63.65366,2747.75
63.97366,2756.13
64.29366,2731.09
64.61366,2716.62
64.93366,5777.96
65.25366,3028.3
65.57366,2725.74
65.89366,2587.68
66.21366,2691.49
66.53366,2613.31
66.85366,2809.489
67.17366,3282.13
67.49366,4956.95
67.81366,2940.23
68.13366,3180.42
68.45366,2798.78
68.77366,2582.01
69.09366,2473.37
69.41366,2690.69
69.73366,2529.36
70.05366,2836.35
70.37366,2819.83
70.69366,2614.84
71.01366,2584.62
71.33366,2800.48
71.65366,4385.72
71.97366,4051.99
72.29366,2761.73
72.61366,2677.11
72.93366,2721.6
73.25366,3296.62
73.57366,3290.2
73.89366,3836.04
74.21366,2632.39
74.53366,2558.33
74.85366,2560.95
75.17366,2616.03
75.49366,2756.52
75.81366,2770.96
76.13366,3339.26
76.45366,4844.7
76.77366,6665.98
77.09366,4154.43
77.41366,3254.55
77.73366,3645.99
78.05366,2704.14
78.37366,2678.47
78.69366,2750.29
79.01366,2605.33
79.33366,2669.8
79.65366,2615.35
79.97366,2758.12
80.29366,2798.92
80.61366,3134.59
80.93366,2778.31
81.25366,2730.81
81.57366,2586.45
81.89366,2628.2
82.21366,2676.62
82.53366,2719.03
82.85366,2630.29
83.17366,2667.26
83.49366,2529.74
83.81366,2512.09
84.13366,2610.23
84.45366,2558.92
84.77366,2543.2
85.09366,2702.72
85.41366,2602.38
85.73366,2840.53
86.05366,2980.43
86.37366,2638.03
86.69366,2709.25
87.01366,3291.54
87.33366,3001.28
87.65366,2746.36
87.97366,2654.64
88.29366,2721.39
88.61366,3698.57
88.93366,3248.68
89.25366,2865.4
89.57366,2986.9
89.89366,3312.34
90.21366,3452.24
90.53366,2734.49
90.85366,2646.9
91.17366,2533.3
91.49366,2689.19
91.81366,2666.15
92.13366,2672.05
92.45366,2789.94
92.77366,3449.34
93.09366,5254.91
93.41366,3571.39
93.73366,2827.56
94.05366,2679.28
94.37366,2562.08
94.69366,2565.8
95.01366,2647.54
95.33366,2645.9
95.65366,2656.57
95.97366,2636.02
96.29366,2701.13
96.61366,2678.19
96.93366,2845.6
97.25366,3824.55
97.57366,4436.59
97.89366,3226.2
98.21366,2683.95
98.53366,2971.96
98.85366,3217.98
99.17366,2721.38
99.49366,2556.68
99.79366,2695.87

File: 00-060-0191 (PD3).csv
8.81,19131
9.115,18513
9.42,18062
9.725,17744
10.03,17239
10.335,16908
10.64,16568
10.945,16366
11.25,15763
11.555,15557
11.86,15387
12.165,14562
12.47,14333
12.775,14086
13.08,14046
13.385,13476
13.69,13158
13.995,12912
14.3,12734
14.605,12438
14.91,12055
15.215,11920
15.52,11933
15.825,11669
16.13,11526
16.435,11332
16.74,11082
17.045,10984
17.35,10860
17.655,10831
17.96,10879
18.265,10568
18.57,10685
18.875,10379
19.18,10286
19.485,10307
19.79,10028
20.095,10188
20.4,10966
20.705,20073
21.01,10919
21.315,9606
21.62,9112
21.925,8880
22.23,8958
22.535,8613
22.84,8481
23.145,8222
23.45,8257
23.755,8357
24.06,10077
24.365,8185
24.67,7731
24.975,8087
25.28,7163
25.585,7156
25.89,6895
26.195,6930
26.5,6706
26.805,6660
27.11,6512
27.415,6600
27.72,7849
28.025,16683
28.33,6459
28.635,6100
28.94,6009
29.245,6017
29.55,6476
29.855,7920
30.16,5685
30.465,5650
30.77,5589
31.075,5768
31.38,5493
31.685,5436
31.99,5996
32.295,11110
32.6,45738
32.905,22570
33.21,14968
33.515,6436
33.82,5177
34.125,4950
34.43,5366
34.735,7648
35.04,10369
35.345,25539
35.65,10396
35.955,55385
36.26,9675
36.565,5873
36.87,5565
37.175,7157
37.48,20434
37.785,19221
38.09,6984
38.395,5508
38.7,4952
39.005,4905
39.31,5326
39.615,13161
39.92,8466
40.225,5360
40.53,5193
40.835,7002
41.14,36706
41.445,9226
41.75,6908
42.055,7043
42.36,16105
42.665,7642
42.97,5177
43.275,10620
43.58,5211
43.885,7115
44.19,29441
44.495,15959
44.8,4993
45.105,3936
45.41,3617
45.715,3588
46.02,3519
46.325,3700
46.63,6262
46.935,4116
47.24,3414
47.545,3287
47.85,3219
48.155,3191
48.46,3212
48.765,3241
49.07,3674
49.375,3674
49.68,3782
49.985,3380
50.29,3122
50.595,3080
50.9,3445
51.205,3143
51.51,3245
51.815,3823
52.12,3886
52.425,4005
52.73,9551
53.035,4359
53.34,4556
53.645,8793
53.95,4790
54.255,3368
54.56,3139
54.865,3155
55.17,3502
55.475,11036
55.78,3609
56.085,3173
56.39,3203
56.695,4531
57,4096
57.305,4084
57.61,4429
57.915,6143
58.22,4436
58.525,10836
58.83,10220
59.135,5934
59.44,3430
59.745,3335
60.05,2983
60.355,2976
60.66,2984
60.965,2950
61.27,2873
61.575,2942
61.88,3392
62.185,2878
62.49,2966
62.795,3161
63.1,3736
63.405,13973
63.71,3819
64.015,3470
64.32,4807
64.625,4453
64.93,4453
65.235,6385
65.54,8205
65.845,39406
66.15,6415
66.455,4105
66.76,4216
67.065,3439
67.37,3470
67.675,3208
67.98,3229
68.285,4375
68.59,3996
68.895,7492
69.2,7137
69.505,3876
69.81,3433
70.115,3483
70.42,5450
70.725,4310
71.03,3747
71.335,5840
71.64,3547
71.945,3519
72.25,3121
72.555,3300
72.86,3656
73.165,9171
73.47,12690
73.775,4086
74.08,4034
74.385,9806
74.69,3777
74.995,3801
75.3,4181
75.605,8437
75.91,4897
76.215,7641
76.52,4094
76.825,3395
77.13,3906
77.435,3887
77.74,3692
78.045,4318
78.35,5428
78.655,8935
78.96,4040
79.265,3574
79.57,3639
79.875,4345
80.18,11145
80.485,13086
80.79,4964
81.095,3857
81.4,3980
81.705,5286
82.01,3492
82.315,4938
82.62,4162
82.925,3591
83.23,3399
83.535,6353
83.84,3804
84.145,3153
84.45,2997
84.755,2899
85.06,2956
85.365,2941
85.67,3110
85.975,3306
86.28,3117
86.585,3098
86.89,3168
87.195,3649
87.5,4468
87.805,5443
88.11,4820
88.415,3810
88.72,4452
89.025,4408
89.33,4278
89.635,3391
89.94,3132
90.245,3122
90.55,3305
90.855,3259
91.16,3484
91.465,5278
91.77,4266
92.075,7224
92.38,4040
92.685,3586
92.99,3879
93.295,3386
93.6,3574
93.905,4545
94.21,6507
94.515,3745
94.82,3558
95.125,4481
95.43,5015
95.735,3534
96.04,3561
96.345,4906
96.65,3849
96.955,5424
97.26,6351
97.565,5479
97.87,7533
98.175,5015
98.48,4786
98.785,3692
98.81,3688

File: 00-060-0201 (PD3).csv
10,1400
10.32,1436
10.64,1473
10.96,1412
11.28,1404
11.6,1596
11.92,1407
12.24,1383
12.56,1305
12.88,1342
13.2,1319
13.52,1272
13.84,1264
14.16,1349
14.48,1304
14.8,1251
15.12,1336
15.44,1196
15.76,1295
16.08,1304
16.4,1341
16.72,1298
17.04,1262
17.36,1328
17.68,1522
18,2062
18.32,1307
18.64,1279
18.96,1222
19.28,1274
19.6,1284
19.92,1246
20.24,1214
20.56,1253
20.88,1241
21.2,1258
21.52,1153
21.84,1249
22.16,1179
22.48,1288
22.8,2093
23.12,1218
23.44,1404
23.76,1192
24.08,1167
24.4,1104
24.72,1206
25.04,1139
25.36,1135
25.68,1143
26,1217
26.32,1452
26.64,1879
26.96,1419
27.28,1940
27.6,1288
27.92,1184
28.24,1572
28.56,1200
28.88,1234
29.2,1218
29.52,1280
29.84,1195
30.16,1157
30.48,1203
30.8,1234
31.12,1317
31.44,4040
31.76,1386
32.08,1260
32.4,1200
32.72,1182
33.04,1209
33.36,1205
33.68,1176
34,1228
34.32,1238
34.64,1284
34.96,1501
35.28,1988
35.6,12033
35.92,4628
36.24,5353
36.56,2113
36.88,2615
37.2,15428
37.52,1993
37.84,1663
38.16,2385
38.48,6385
38.8,1729
39.12,1796
39.44,2797
39.76,12957
40.08,1973
40.4,1468
40.72,1498
41.04,1366
41.36,1392
41.68,1333
42,1380
42.32,1288
42.64,1406
42.96,2719
43.28,1525
43.6,1426
43.92,1438
44.24,1549
44.56,2608
44.88,5152
45.2,1937
45.52,5564
45.84,1542
46.16,1394
46.48,1400
46.8,1408
47.12,1410
47.44,1485
47.76,1945
48.08,2298
48.4,1426
48.72,1439
49.04,1310
49.36,1285
49.68,1338
50,1612
50.32,1376
50.64,1750
50.96,1758
51.28,1439
51.6,1283
51.92,1253
52.24,1219
52.56,1269
52.88,1250
53.2,1441
53.52,1305
53.84,1185
54.16,1244
54.48,1329
54.8,1303
55.12,1324
55.44,1376
55.76,2165
56.08,2717
56.4,1997
56.72,2323
57.04,1451
57.36,1426
57.68,1328
58,1326
58.32,1435
58.64,1572
58.96,2487
59.28,1504
59.6,1530
59.92,1690
60.24,2317
60.56,2760
60.88,1432
61.2,1665
61.52,2066
61.84,1479
62.16,1392
62.48,1383
62.8,1384
63.12,1506
63.44,1882
63.76,2433
64.08,2009
64.4,1405
64.72,1506
65.04,2380
65.36,1769
65.68,3861
66,1737
66.32,1420
66.64,1515
66.96,1768
67.28,1397
67.6,1531
67.92,1575
68.24,1448
68.56,1543
68.88,1508
69.2,2146
69.52,1533
69.84,1466
70.16,1332
70.48,1410
70.8,1364
71.12,1342
71.44,1342
71.76,1328
72.08,1345
72.4,1445
72.72,1734
73.04,2024
73.36,1422
73.68,1430
74,1863
74.32,2953
74.64,2819
74.96,1846
75.28,2044
75.6,1618
75.92,1488
76.24,1563
76.56,2836
76.88,2110
77.2,1726
77.52,1916
77.84,1475
78.16,1402
78.48,1432
78.8,1530
79.12,2112
79.44,1717
79.76,1325
80.08,1328
80.4,1386
80.72,1667
81.04,1701
81.36,1381
81.68,1362
82,1424
82.32,1534
82.64,1438
82.96,1725
83.28,1617
83.6,1541
83.92,1805
84.24,1453
84.56,1326
84.88,1272
85.2,1367
85.52,1454
85.84,1371
86.16,1337
86.48,1440
86.8,1430
87.12,1474
87.44,1456
87.76,1401
88.08,1316
88.4,1312
88.72,1291
89.04,1326
89.36,1389
89.68,1408
90,1535
90.32,1530
90.64,1315
90.96,1360
91.28,1321
91.6,1399
91.92,1368
92.24,1345
92.56,1277
92.88,1336
93.2,1469
93.52,1621
93.84,1681
94.16,1645
94.48,1463
94.8,1399
95.12,1341
95.44,1294
95.76,1375
96.08,1327
96.4,1336
96.72,1274
97.04,1289
97.36,1307
97.68,1352
98,1480
98.32,1692
98.64,1684
98.96,2019
99.28,1785
99.6,1975
99.92,1623
100.24,1459
100.56,1409
100.88,1393
101.2,1518
101.52,1375
101.84,1407
102.16,1611
102.48,1472
102.8,1613
103.12,1503
103.44,1382

File: 00-060-0203 (PD3).csv
15,1980
15.32,1861
15.64,1926
15.96,1855
16.28,1904
16.6,1893
16.92,1865
17.24,1903
17.56,1976
17.88,1848
18.2,1858
18.52,1804
18.84,1867
19.16,1870
19.48,1814
19.8,1826
20.12,1767
20.44,1919
20.76,1804
21.08,1801
21.4,1847
21.72,1800
22.04,1809
22.36,2369
22.68,1762
23,1859
23.32,3211
23.64,1756
23.96,1696
24.28,1748
24.6,1782
24.92,1746
25.24,1725
25.56,1675
25.88,1723
26.2,1760
26.52,1863
26.84,3101
27.16,2325
27.48,1769
27.8,1729
28.12,1785
28.44,1700
28.76,1701
29.08,1726
29.4,1700
29.72,1713
30.04,1675
30.36,1685
30.68,1692
31,1727
31.32,1758
31.64,1729
31.96,1829
32.28,1963
32.6,2180
32.92,1778
33.24,1791
33.56,1884
33.88,1854
34.2,2060
34.52,4971
34.84,2684
35.16,2333
35.48,2749
35.8,11233
36.12,9204
36.44,2906
36.76,2762
37.08,6708
37.4,10805
37.72,2829
38.04,2536
38.36,4716
38.68,5480
39,2271
39.32,2038
39.64,1963
39.96,1944
40.28,1987
40.6,1980
40.92,1931
41.24,1978
41.56,1884
41.88,1958
42.2,1960
42.52,1943
42.84,2050
43.16,2050
43.48,2623
43.8,7050
44.12,4270
44.44,6552
44.76,3890
45.08,5024
45.4,3063
45.72,2317
46.04,1944
46.36,1788
46.68,1897
47,1890
47.32,2020
47.64,4155
47.96,2109
48.28,1852
48.6,1846
48.92,1814
49.24,1836
49.56,1817
49.88,1811
50.2,1745
50.52,1781
50.84,1772
51.16,1765
51.48,1767
51.8,1857
52.12,1878
52.44,1977
52.76,1960
53.08,1833
53.4,1751
53.72,1793
54.04,1837
54.36,2005
54.68,3231
55,2184
55.32,2431
55.64,3985
55.96,2187
56.28,1863
56.6,1885
56.92,1886
57.24,1959
57.56,1905
57.88,2510
58.2,2207
58.52,2206
58.84,2012
59.16,1947
59.48,2282
59.8,4430
60.12,2424
60.44,2007
60.76,2002
61.08,2614
61.4,2047
61.72,1943
62.04,2017
62.36,2985
62.68,2418
63,1950
63.32,1895
63.64,1905
63.96,1965
64.28,2243
64.6,4224
64.92,2722
65.24,2383
65.56,2003
65.88,1851
66.2,1911
66.52,1907
66.84,2234
67.16,3931
67.48,2337
67.8,2021
68.12,1974
68.44,2014
68.76,1992
69.08,2054
69.4,2397
69.72,3999
70.04,2451
70.36,2090
70.68,2060
71,2094
71.32,2024
71.64,1927
71.96,1823
72.28,1902
72.6,1894
72.92,2041
73.24,2678
73.56,2725
73.88,2104
74.2,2070
74.52,2115
74.84,2154
75.16,2277
75.48,2842
75.8,2424
76.12,3046
76.44,2708
76.76,2110
77.08,1966
77.4,1835
77.72,1909
78.04,1921
78.36,1995
78.68,1995
79,2034
79.32,2590
79.64,2379
79.96,1976
80.28,1945
80.6,1981
80.92,2169
81.24,2213
81.56,2626
81.88,2826
82.2,2401
82.52,2869
82.84,2340
83.16,2132
83.48,2034
83.8,1847
84.12,1892
84.44,1813
84.76,1874
85.08,1841
85.4,1802
85.72,1859
86.04,1824
86.36,1793
86.68,1820
87,1854
87.32,1969
87.64,1924
87.96,1857
88.28,1921
88.6,2102
88.92,2238
89.24,2014
89.56,1901
89.88,1923
90.2,1958
90.52,1846
90.84,1859
91.16,1813
91.48,1928
91.8,1855
92.12,1880
92.44,1832
92.76,1929
93.08,1833
93.4,1874
93.72,1935
94.04,1880
94.36,1930
94.68,2123
95,2292
95.32,2236
95.64,1910
95.96,1963
96.28,2092
96.6,2062
96.92,1950
97.24,1973
97.56,1929
97.88,2017
98.2,2291
98.52,2794
98.84,2497
99.16,2074
99.48,2118
99.8,2257
100.12,2163
100.44,1945
100.76,1916
101.08,1964
101.4,2018
101.72,2022
102.04,2268
102.36,2289
102.68,2130
103,2007
103.32,1908
103.64,1903
103.96,2021
104.28,1952
104.6,2003
104.92,2203
105.24,1982
105.56,1868
105.88,2097
106.2,2111
106.52,2121
106.64,2096

File: 00-060-0212 (PD3).csv
10,1525
10.32,1476
10.64,1509
10.96,1416
11.28,1467
11.6,1860
11.92,1462
12.24,1371
12.56,1359
12.88,1401
13.2,1355
13.52,1353
13.84,1306
14.16,1359
14.48,1409
14.8,1333
15.12,1356
15.44,1348
15.76,1301
16.08,1287
16.4,1324
16.72,1384
17.04,1352
17.36,1356
17.68,1585
18,1783
18.32,1423
18.64,1367
18.96,1326
19.28,1310
19.6,1309
19.92,1293
20.24,1331
20.56,1322
20.88,1263
21.2,1337
21.52,1270
21.84,1277
22.16,1227
22.48,1486
22.8,1549
23.12,1258
23.44,1509
23.76,1311
24.08,1265
24.4,1295
24.72,1235
25.04,1282
25.36,1293
25.68,1274
26,1299
26.32,1703
26.64,1590
26.96,1415
27.28,2182
27.6,1345
27.92,1341
28.24,1824
28.56,1340
28.88,1318
29.2,1303
29.52,1359
29.84,1317
30.16,1354
30.48,1292
30.8,1351
31.12,1488
31.44,4109
31.76,1431
32.08,1360
32.4,1368
32.72,1311
33.04,1349
33.36,1413
33.68,1355
34,1353
34.32,1360
34.64,1404
34.96,1635
35.28,2323
35.6,15128
35.92,4821
36.24,6249
36.56,2316
36.88,3871
37.2,7780
37.52,1957
37.84,1980
38.16,4910
38.48,2816
38.8,1883
39.12,2083
39.44,4376
39.76,7439
40.08,1979
40.4,1655
40.72,1520
41.04,1516
41.36,1495
41.68,1535
42,1494
42.32,1509
42.64,1607
42.96,2313
43.28,1904
43.6,1639
43.92,1613
44.24,1832
44.56,7576
44.88,2681
45.2,2477
45.52,4533
45.84,1660
46.16,1488
46.48,1696
46.8,1529
47.12,1489
47.44,1713
47.76,2353
48.08,2455
48.4,1709
48.72,1497
49.04,1456
49.36,1399
49.68,1529
50,1495
50.32,1517
50.64,1896
50.96,1951
51.28,1507
51.6,1394
51.92,1371
52.24,1320
52.56,1418
52.88,1425
53.2,1575
53.52,1375
53.84,1393
54.16,1419
54.48,1368
54.8,1334
55.12,1392
55.44,1628
55.76,2059
56.08,3290
56.4,2007
56.72,2255
57.04,1458
57.36,1577
57.68,1543
58,1447
58.32,1522
58.64,2000
58.96,2375
59.28,1652
59.6,1932
59.92,1789
60.24,3800
60.56,1771
60.88,1555
61.2,1954
61.52,1898
61.84,1503
62.16,1417
62.48,1452
62.8,1518
63.12,2150
63.44,1622
63.76,2363
64.08,2012
64.4,1556
64.72,2041
65.04,2510
65.36,2242
65.68,3108
66,1712
66.32,1490
66.64,2100
66.96,1584
67.28,1505
67.6,1866
67.92,1640
68.24,1605
68.56,1554
68.88,1632
69.2,2238
69.52,1711
69.84,1494
70.16,1466
70.48,1421
70.8,1475
71.12,1475
71.44,1544
71.76,1467
72.08,1481
72.4,1716
72.72,2162
73.04,1562
73.36,1507
73.68,1610
74,2236
74.32,3586
74.64,2414
74.96,2302
75.28,1977
75.6,1673
75.92,1711
76.24,2407
76.56,2931
76.88,2093
77.2,2558
77.52,1682
77.84,1499
78.16,1474
78.48,1564
78.8,2434
79.12,2043
79.44,1443
79.76,1476
80.08,1478
80.4,1686
80.72,1748
81.04,1435
81.36,1399
81.68,1430
82,1588
82.32,1523
82.64,1505
82.96,1836
83.28,1720
83.6,1631
83.92,1810
84.24,1546
84.56,1503
84.88,1391
85.2,1530
85.52,1435
85.84,1428
86.16,1483
86.48,1416
86.8,1564
87.12,1698
87.44,1476
87.76,1403
88.08,1444
88.4,1329
88.72,1415
89.04,1379
89.36,1433
89.68,1615
90,1622
90.32,1423
90.64,1357
90.96,1440
91.28,1493
91.6,1584
91.92,1519
92.24,1386
92.56,1466
92.88,1464
93.2,1475
93.52,1741
93.84,1593
94.16,1688
94.48,1696
94.8,1506
95.12,1351
95.44,1469
95.76,1450
96.08,1406
96.4,1446
96.72,1477
97.04,1442
97.36,1430
97.68,1573
98,1645
98.32,1777
98.64,2116
98.96,1890
99.28,1756
99.6,1856
99.92,1736
100.24,1605
100.56,1561
100.88,1505
101.2,1538
101.52,1545
101.84,1597
102.16,1603
102.48,1596
102.8,1549
103.12,1533
103.44,1498
103.76,1445

File: 00-060-0213 (PD3).csv
15,1238
15.32,1273
15.64,1199
15.96,1250
16.28,1236
16.6,1223
16.92,1188
17.24,1238
17.56,1210
17.88,1287
18.2,1200
18.52,1240
18.84,1178
19.16,1182
19.48,1178
19.8,1169
20.12,1251
20.44,1176
20.76,1189
21.08,1139
21.4,1131
21.72,1137
22.04,1209
22.36,1317
22.68,2066
23,1208
23.32,1481
23.64,2387
23.96,1131
24.28,1120
24.6,1001
24.92,1109
25.24,1078
25.56,1074
25.88,1084
26.2,1143
26.52,1200
26.84,1476
27.16,5149
27.48,1285
27.8,1176
28.12,1129
28.44,1079
28.76,1117
29.08,1102
29.4,1078
29.72,1159
30.04,1162
30.36,1104
30.68,1111
31,1198
31.32,1125
31.64,1142
31.96,1184
32.28,1258
32.6,1548
32.92,1391
33.24,1205
33.56,1149
33.88,1171
34.2,1178
34.52,1378
34.84,1669
35.16,3940
35.48,1577
35.8,2356
36.12,18846
36.44,4654
36.76,2297
37.08,1712
37.4,2337
37.72,20788
38.04,2628
38.36,1788
38.68,1702
39,3686
39.32,3551
39.64,1452
39.96,1462
40.28,1366
40.6,1303
40.92,1285
41.24,1326
41.56,1325
41.88,1225
42.2,1290
42.52,1334
42.84,1350
43.16,1381
43.48,1407
43.8,1695
44.12,4131
44.44,3186
44.76,2686
45.08,3091
45.4,3766
45.72,1482
46.04,1836
46.36,1312
46.68,1192
47,1212
47.32,1251
47.64,1297
47.96,1968
48.28,1242
48.6,1201
48.92,1152
49.24,1196
49.56,1191
49.88,1190
50.2,1565
50.52,1197
50.84,1160
51.16,1183
51.48,1237
51.8,1183
52.12,1160
52.44,1325
52.76,1589
53.08,1177
53.4,1369
53.72,1466
54.04,1253
54.36,1238
54.68,1350
55,1996
55.32,2340
55.64,1654
55.96,2466
56.28,2668
56.6,1461
56.92,1321
57.24,1181
57.56,1268
57.88,1245
58.2,1311
58.52,1445
58.84,1800
59.16,1897
59.48,1543
59.8,1398
60.12,1450
60.44,3322
60.76,2376
61.08,1453
61.4,2477
61.72,1598
62.04,1293
62.36,1307
62.68,1240
63,1298
63.32,1888
63.64,1901
63.96,1289
64.28,1249
64.6,1302
64.92,1759
65.24,3010
65.56,1505
65.88,1565
66.2,1274
66.52,1289
66.84,1224
67.16,1202
67.48,1370
67.8,1785
68.12,2541
68.44,1407
68.76,1300
69.08,1342
69.4,1317
69.72,1373
70.04,1306
70.36,1362
70.68,1585
71,3277
71.32,1808
71.64,1383
71.96,1386
72.28,1246
72.6,1353
72.92,1300
73.24,1357
73.56,1445
73.88,2293
74.2,2230
74.52,1505
74.84,1290
75.16,1351
75.48,1381
75.8,1550
76.12,2553
76.44,1875
76.76,1812
77.08,2327
77.4,1766
77.72,1565
78.04,1360
78.36,1342
78.68,1229
79,1245
79.32,1440
79.64,1341
79.96,1301
80.28,1455
80.6,2186
80.92,1572
81.24,1321
81.56,1351
81.88,1506
82.2,1960
82.52,2076
82.84,1495
83.16,1982
83.48,1669
83.8,1417
84.12,1851
84.44,1463
84.76,1283
85.08,1230
85.4,1234
85.72,1273
86.04,1210
86.36,1259
86.68,1233
87,1226
87.32,1172
87.64,1168
87.96,1181
88.28,1291
88.6,1290
88.92,1337
89.24,1444
89.56,1436
89.88,1382
90.2,1255
90.52,1236
90.84,1174
91.16,1314
91.48,1269
91.8,1192
92.12,1198
92.44,1262
92.76,1348
93.08,1261
93.4,1358
93.72,1334
94.04,1443
94.36,1251
94.68,1274
95,1465
95.32,1402
95.64,1477
95.96,1413
96.28,1573
96.6,1688
96.92,1463
97.24,1342
97.56,1407
97.88,1397
98.2,1319
98.52,1240
98.84,1275
99.16,1405
99.48,2092
99.8,1802
100.12,1603
100.44,1876
100.76,1745
101.08,1729
101.4,1580
101.72,1322
102.04,1359
102.36,1279
102.68,1294
103,1418
103.32,1406
103.64,1467
103.96,1802
104.28,1583
104.6,1388
104.92,1605
105.24,1497
105.56,1536
105.88,1507
106.2,1330
106.52,1308
106.84,1345
106.96,1281