Folder: spectrumdavit/data/xrd_icdd_PDF (part 16)

File: 00-068-0088 (PD3).csv
10,369
10.34,431
10.68,429
11.02,408
11.36,425
11.7,381
12.04,387
12.38,353
12.72,337
13.06,329
13.4,317
13.74,304
14.08,287
14.42,274
14.76,273
15.1,248
15.44,225
15.78,215
16.12,209
16.46,222
16.8,204
17.14,319
17.48,274
17.82,182
18.16,211
18.5,207
18.84,224
19.18,224
19.52,258
19.86,223
20.2,298
20.54,257
20.88,257
21.22,242
21.56,285
21.9,322
22.24,338
22.58,354
22.92,372
23.26,400
23.6,427
23.94,490
24.28,487
24.62,564
24.96,608
25.3,736
25.64,741
25.98,882
26.32,2890
26.66,5195
27,984
27.34,944
27.68,861
28.02,1678
28.36,937
28.7,872
29.04,793
29.38,766
29.72,699
30.06,708
30.4,597
30.74,634
31.08,626
31.42,704
31.76,1432
32.1,2331
32.44,600
32.78,466
33.12,451
33.46,420
33.8,358
34.14,385
34.48,358
34.82,337
35.16,369
35.5,297
35.84,265
36.18,337
36.52,454
36.86,230
37.2,199
37.54,190
37.88,220
38.22,207
38.56,211
38.9,174
39.24,174
39.58,188
39.92,187
40.26,216
40.6,223
40.94,208
41.28,240
41.62,252
41.96,262
42.3,228
42.64,352
42.98,2665
43.32,516
43.66,313
44,279
44.34,289
44.68,280
45.02,312
45.36,323
45.7,1562
46.04,598
46.38,335
46.72,283
47.06,271
47.4,346
47.74,315
48.08,306
48.42,395
48.76,1578
49.1,374
49.44,323
49.78,319
50.12,298
50.46,294
50.8,297
51.14,380
51.48,305
51.82,296
52.16,275
52.5,334
52.84,327
53.18,426
53.52,1716
53.86,2075
54.2,480
54.54,1686
54.88,447
55.22,283
55.56,288
55.9,269
56.24,287
56.58,227
56.92,224
57.26,212
57.6,201
57.94,326
58.28,242
58.62,212
58.96,168
59.3,225
59.64,209
59.98,254
60.32,240
60.66,210
61,169
61.34,214
61.68,182
62.02,213
62.36,200
62.7,168
63.04,188
63.38,164
63.72,215
64.06,170
64.4,135
64.74,148
65.08,175
65.42,182
65.76,162
66.1,162
66.44,247
66.78,565
67.12,234
67.46,206
67.8,475
68.14,199
68.48,172
68.82,360
69.16,769
69.5,217
69.84,178
70.18,152
70.52,127
70.86,141
71.2,142
71.54,126
71.88,100
72.22,136
72.56,157
72.9,329
73.24,618
73.58,291
73.92,567
74.26,182
74.6,159
74.94,147
75.28,154
75.62,301
75.96,600
76.3,234
76.64,191
76.98,298
77.32,134
77.66,137
78,97
78.34,107
78.68,135
79.02,298
79.36,154
79.7,111
80.04,92
80.38,79
80.72,119
81.06,101
81.4,56
81.74,83
82.08,122
82.42,212
82.76,548
83.1,215
83.44,126
83.78,102
84.12,85
84.46,104
84.8,71
85.14,83
85.48,83
85.82,90
86.16,90
86.5,89
86.84,214
87.18,157
87.52,71
87.86,62
88.2,96
88.54,77
88.88,70
89.22,81
89.56,64
89.9,87
90.24,145
90.58,610
90.92,426
91.26,94
91.6,90
91.94,82
92.28,78
92.62,72
92.96,93
93.3,89
93.64,85
93.98,109
94.32,163
94.66,132
95,62
95.34,45
95.68,88
96.02,96
96.36,315
96.7,206
97.04,101
97.38,94
97.72,52
98.06,41
98.4,88
98.74,57
99.08,68
99.42,49
99.76,83
100.1,82
100.44,65
100.78,52
101.12,77
101.46,59
101.8,187
102.14,236
102.48,125
102.82,181
103.16,221
103.5,141
103.84,109
104.18,341
104.52,243
104.86,100
105.2,85
105.54,49
105.88,59
106.22,60
106.56,72
106.9,52
107.24,57
107.58,102
107.92,177
108.26,392
108.6,304
108.94,258
109.28,178
109.62,115
109.96,49
110,75

File: 00-068-0200 (PD3).csv
4.30529,381.429
4.58529,390.3403
4.86529,415.121
5.14529,407.499
5.42529,373.472
5.70529,395.217
5.98529,410.645
6.26529,371.1606
6.54529,373.689
6.82529,390.49
7.10529,385.572
7.38529,386.611
7.66529,353.165
7.94529,392.8741
8.22529,367.77
8.50529,363.331
8.78529,364.898
9.06529,359.365
9.34529,356.174
9.62529,369.993
9.90529,377.2529
10.18529,362.976
10.46529,361.452
10.74529,375.51
11.02529,361.694
11.30529,395.574
11.58529,375.33
11.86529,366.507
12.14529,363.098
12.42529,354.3483
12.70529,344.4
12.98529,362.683
13.26529,320.827
13.54529,307.449
13.82529,289.7783
14.10529,303.526
14.38529,300.206
14.66529,262.82
14.94529,283.103
15.22529,271.6909
15.50529,271.657
15.78529,256.009
16.06529,235.7869
16.34529,260.059
16.62529,248.394
16.90529,245.812
17.18529,244.122
17.46529,215.597
17.74529,235.305
18.02529,231.064
18.30529,218.525
18.58529,222.111
18.86529,212.339
19.14529,208.04
19.42529,212.441
19.70529,197.596
19.98529,179.647
20.26529,204.141
20.54529,197.384
20.82529,181.962
21.10529,199.468
21.38529,177.497
21.66529,178.419
21.94529,174.064
22.22529,175.803
22.50529,174.54
22.78529,157.055
23.06529,155.347
23.34529,153.59
23.62529,147.23
23.90529,148.924
24.18529,144.161
24.46529,147.219
24.74529,137.753
25.02529,128.194
25.30529,145.087
25.58529,153.4721
25.86529,127.42
26.14529,152.805
26.42529,139.805
26.70529,130.834
26.98529,139.3373
27.26529,133.191
27.54529,151.871
27.82529,143.112
28.10529,153.72
28.38529,158.318
28.66529,180.176
28.94529,194.9346
29.22529,291.166
29.50529,385.805
29.78529,775.552
30.06529,2102.19
30.34529,2326.65
30.62529,884.455
30.90529,372.073
31.18529,259.973
31.46529,203.315
31.74529,166.897
32.02529,149.797
32.30529,150.735
32.58529,132.725
32.86529,129.462
33.14529,128.909
33.42529,130.4564
33.70529,124.427
33.98529,138.497
34.26529,202.487
34.54529,343.218
34.82529,298.478
35.10529,359.674
35.38529,404.632
35.66529,179.544
35.94529,119.009
36.22529,102.064
36.50529,92.83962
36.78529,88.30362
37.06529,90.10811
37.34529,78.31467
37.62529,77.46517
37.90529,78.74758
38.18529,70.61322
38.46529,66.31831
38.74529,76.43521
39.02529,75.47978
39.30529,71.45407
39.58529,66.7948
39.86529,55.72171
40.14529,63.17606
40.42529,59.17998
40.70529,48.10757
40.98529,59.40093
41.26529,70.24093
41.54529,50.58486
41.82529,67.75736
42.10529,62.88866
42.38529,60.20599
42.66529,84.28595
42.94529,85.27672
43.22529,80.44012
43.50529,64.33761
43.78529,67.66024
44.06529,62.58058
44.34529,47.06807
44.62529,54.38771
44.90529,57.87742
45.18529,68.34771
45.46529,56.21847
45.74529,61.09858
46.02529,45.86732
46.30529,68.89451
46.58529,58.47621
46.86529,59.40651
47.14529,68.48313
47.42529,81.01663
47.70529,73.66681
47.98529,59.97871
48.26529,77.84878
48.54529,80.82416
48.82529,100.864
49.10529,116.912
49.38529,157.632
49.66529,236.503
49.94529,476.871
50.22529,809.809
50.50529,782.967
50.78529,667.785
51.06529,368.223
51.34529,201.745
51.62529,115.171
51.90529,85.42952
52.18529,80.57349
52.46529,66.21321
52.74529,60.61797
53.02529,68.81571
53.30529,70.2192
53.58529,65.60134
53.86529,54.30612
54.14529,58.49055
54.42529,59.36342
54.70529,52.32833
54.98529,47.58152
55.26529,53.20809
55.54529,47.82557
55.82529,58.9481
56.10529,53.66854
56.38529,53.60277
56.66529,49.89493
56.94529,51.10397
57.22529,55.43396
57.50529,52.0568
57.78529,62.34495
58.06529,64.22746
58.34529,98.73708
58.62529,124.784
58.90529,191.8832
59.18529,293.238
59.46529,321.707
59.74529,310.578
60.02529,399.113
60.30529,529.575
60.58529,344.823
60.86529,183.731
61.14529,114.393
61.42529,86.69539
61.70529,72.95461
61.98529,81.9919
62.26529,84.34581
62.54529,106.879
62.82529,140.352
63.10529,150.712
63.38529,102.15
63.66529,72.85401
63.94529,57.24019
64.22529,47.08593
64.50529,44.25577
64.78529,43.74916
65.06529,55.43549
65.34529,39.35433
65.62529,38.56475
65.90529,36.87694
66.18529,36.99552
66.46529,39.04574
66.74529,35.05949
67.02529,28.36702
67.30529,38.5224
67.58529,40.91194
67.86529,34.9312
68.14529,36.35571
68.42529,43.4061
68.70529,42.04848
68.98529,34.55646
69.26529,36.336
69.54529,37.59604
69.82529,36.12536
70.10529,34.82652
70.38529,37.34978
70.66529,36.22012
70.94529,42.38395
71.22529,41.18966
71.50529,39.22718
71.78529,39.113
72.06529,42.708
72.34529,39.98836
72.62529,59.16664
72.90529,69.69571
73.18529,72.83192
73.46529,48.22966
73.74529,53.44684
74.02529,60.95889
74.30529,78.76088
74.58529,126.902
74.86529,118.982
75.14529,75.63444
75.42529,47.75703
75.70529,47.6828
75.98529,40.82695
76.26529,41.51855
76.54529,39.3188
76.82529,37.90866
77.10529,44.37487
77.38529,42.04822
77.66529,32.0626
77.94529,41.78553
78.22529,41.80834
78.50529,36.44185
78.78529,42.6374
79.06529,38.18355
79.34529,48.60929
79.62529,44.19802
79.90529,42.83406
80.18529,50.17288
80.46529,48.7997
80.74529,59.54928
81.02529,85.88696
81.30529,111.2855
81.58529,139.204
81.86529,208.085
82.14529,187.1199
82.42529,167.555
82.54529,173.632

File: 00-068-0308 (PD3).csv
8.60846,49.784
8.84846,46.23592
9.08846,58.10189
9.32846,44.67163
9.56846,61.28313
9.80846,54.69163
10.04846,51.9677
10.28846,54.52615
10.52846,50.40489
10.76846,70.98761
11.00846,56.42512
11.24846,63.74482
11.48846,51.99144
11.72846,53.31676
11.96846,54.61629
12.20846,58.88728
12.44846,60.8906
12.68846,55.75182
12.92846,60.12339
13.16846,55.26059
13.40846,59.81031
13.64846,56.39296
13.88846,55.24491
14.12846,46.23234
14.36846,50.84473
14.60846,64.67032
14.84846,57.62981
15.08846,66.01424
15.32846,67.29037
15.56846,63.66131
15.80846,59.39445
16.04846,57.34352
16.28846,59.87908
16.52846,57.13059
16.76846,61.45969
17.00846,62.92855
17.24846,59.92828
17.48846,62.17842
17.72846,45.07345
17.96846,50.99657
18.20846,52.18221
18.44846,45.34882
18.68846,59.41519
18.92846,62.2843
19.16846,69.67289
19.40846,54.91771
19.64846,53.2326
19.88846,53.23479
20.12846,64.45004
20.36846,74.96126
20.60846,71.73598
20.84846,133.103
21.08846,57.71623
21.32846,59.84227
21.56846,72.18986
21.80846,131.494
22.04846,70.13339
22.28846,57.64264
22.52846,57.44366
22.76846,58.4849
23.00846,57.13496
23.24846,59.98586
23.48846,54.14775
23.72846,62.48484
23.96846,53.68877
24.20846,67.06838
24.44846,63.35685
24.68846,65.21845
24.92846,58.91692
25.16846,107.297
25.40846,61.22999
25.64846,65.12934
25.88846,62.25844
26.12846,62.39782
26.36846,67.59052
26.60846,64.12789
26.84846,57.81772
27.08846,71.76782
27.32846,59.0816
27.56846,74.08139
27.80846,60.49537
28.04846,59.33027
28.28846,62.3652
28.52846,60.83844
28.76846,66.72007
29.00846,68.98219
29.24846,59.18289
29.48846,61.16757
29.72846,66.76364
29.96846,70.24839
30.20846,59.27867
30.44846,63.00151
30.68846,51.31816
30.92846,66.64059
31.16846,69.93662
31.40846,69.55909
31.64846,59.54898
31.88846,63.0641
32.12846,73.9938
32.36846,68.28831
32.60846,88.94286
32.84846,278.482
33.08846,316.99
33.32846,92.25408
33.56846,75.35546
33.80846,72.28834
34.04846,61.50278
34.28846,66.3579
34.52846,60.37835
34.76846,59.53652
35.00846,77.20634
35.24846,64.0007
35.48846,102.921
35.72846,310.332
35.96846,833.92
36.20846,165.487
36.44846,81.94382
36.68846,76.34434
36.92846,70.87826
37.16846,77.84398
37.40846,65.04512
37.64846,65.4347
37.88846,55.75575
38.12846,72.70989
38.36846,59.35837
38.60846,56.01438
38.84846,56.85694
39.08846,67.58
39.32846,74.12226
39.56846,65.70557
39.80846,63.39098
40.04846,69.21052
40.28846,56.59075
40.52846,77.68306
40.76846,79.01728
41.00846,61.21061
41.24846,82.95687
41.48846,118.6565
41.72846,306.267
41.96846,220.814
42.20846,322.564
42.44846,894.49
42.68846,152.231
42.92846,95.37086
43.16846,76.2219
43.40846,74.95929
43.64846,68.02506
43.88846,55.68553
44.12846,87.04229
44.36846,147.704
44.60846,224.9
44.84846,77.84735
45.08846,80.42262
45.32846,88.84928
45.56846,98.59772
45.80846,249.752
46.04846,210.142
46.28846,75.30654
46.52846,70.3734
46.76846,71.7733
47.00846,71.60468
47.24846,68.83663
47.48846,60.45842
47.72846,66.85404
47.96846,63.11983
48.20846,69.63608
48.44846,57.83407
48.68846,62.41499
48.92846,68.05396
49.16846,72.83879
49.40846,82.27851
49.64846,99.19517
49.88846,78.53832
50.12846,65.12132
50.36846,70.95156
50.60846,60.40154
50.84846,66.2656
51.08846,52.43533
51.32846,57.80113
51.56846,74.04099
51.80846,86.21304
52.04846,68.03636
52.28846,78.90023
52.52846,64.73423
52.76846,70.32833
53.00846,56.35779
53.24846,64.09413
53.48846,65.05086
53.72846,70.84124
53.96846,67.93827
54.20846,59.79489
54.44846,65.12658
54.68846,62.18366
54.92846,62.07447
55.16846,62.83208
55.40846,70.8105
55.64846,62.55073
55.88846,73.18838
56.12846,72.44535
56.36846,84.22479
56.60846,146.908
56.84846,122.231
57.08846,109.62
57.32846,73.60389
57.56846,68.36107
57.80846,70.39829
58.04846,77.27617
58.28846,73.91197
58.52846,72.54679
58.76846,70.91862
59.00846,60.61574
59.24846,71.10041
59.48846,70.85301
59.72846,68.36145
59.96846,67.90445
60.20846,57.89468
60.44846,68.61815
60.68846,63.29274
60.92846,60.03755
61.16846,69.81443
61.40846,66.84997
61.64846,83.38756
61.88846,61.17862
62.12846,66.5089
62.36846,87.07013
62.60846,165.696
62.84846,116.61
63.08846,69.35045
63.32846,72.86669
63.56846,82.8744
63.80846,74.94957
64.04846,71.29678
64.28846,107.51
64.52846,204.362
64.76846,106.273
65.00846,92.10364
65.24846,78.59536
65.48846,79.23643
65.72846,121.8996
65.96846,138.172
66.20846,73.98806
66.44846,73.26439
66.68846,83.2759
66.92846,68.26219
67.16846,70.72664
67.40846,65.75117
67.64846,76.8423
67.88846,79.82068
68.12846,76.06257
68.36846,80.19833
68.60846,117.609
68.84846,306.222
69.08846,280.3951
69.32846,167.701
69.56846,91.34363
69.80846,82.95388
70.04846,68.16558
70.28846,75.85271
70.52846,69.51713
70.76846,71.73553
71.00846,72.47495
71.24846,61.7348
71.48846,96.2607
71.72846,97.82479
71.96846,74.07544
72.20846,84.24453
72.44846,81.72318
72.68846,71.51726
72.92846,73.67593
73.16846,74.8994
73.40846,60.83957
73.64846,72.80953
73.88846,74.85711
74.12846,68.94186
74.36846,81.33811
74.60846,70.50104
74.84846,74.01659
75.02846,64.0001

File: 00-069-0133 (PD3).csv
9.9813,47
10.18329,74
10.38527,50
10.58726,74
10.78924,52
10.99123,67
11.19322,79
11.3952,120
11.59719,70
11.79917,97
12.00116,81
12.20314,70
12.40513,74
12.60712,113
12.8091,93
13.01109,90
13.21307,102
13.41506,102
13.61705,106
13.81903,136
14.02102,112
14.223,157
14.42499,237
14.62697,1141
14.82896,667
15.03095,213
15.23293,320
15.43492,168
15.6369,157
15.83889,194
16.04088,132
16.24286,163
16.44485,194
16.64683,170
16.84882,129
17.05081,174
17.25279,172
17.45478,182
17.65676,190
17.85875,203
18.06073,195
18.26272,172
18.46471,168
18.66669,174
18.86868,184
19.07066,160
19.27265,160
19.47464,179
19.67662,184
19.87861,194
20.08059,174
20.28258,180
20.48456,203
20.68655,199
20.88854,351
21.09052,669
21.29251,292
21.49449,200
21.69648,204
21.89847,198
22.10045,283
22.30244,749
22.50442,203
22.70641,188
22.9084,195
23.11038,153
23.31237,194
23.51435,222
23.71634,509
23.91832,694
24.12031,234
24.3223,218
24.52428,295
24.72627,792
24.92825,258
25.13024,198
25.33223,237
25.53421,260
25.7362,1195
25.93818,318
26.14017,254
26.34215,222
26.54414,281
26.74613,1037
26.94811,460
27.1501,226
27.35208,213
27.55407,268
27.75606,285
27.95804,963
28.16003,7554
28.36201,502
28.564,421
28.76598,2428
28.96797,2380
29.16996,369
29.37194,326
29.57393,487
29.77591,1910
29.9779,296
30.17989,264
30.38187,249
30.58386,262
30.78584,1757
30.98783,332
31.18982,221
31.3918,210
31.59379,230
31.79577,204
31.99776,215
32.19974,184
32.40173,200
32.60372,176
32.8057,178
33.00769,244
33.20967,269
33.41166,382
33.61365,2058
33.81563,1316
34.01762,235
34.2196,242
34.42159,402
34.62357,203
34.82556,203
35.02755,190
35.22953,304
35.43152,823
35.6335,225
35.83549,191
36.03748,180
36.23946,176
36.44145,210
36.64343,763
36.84542,505
37.04741,470
37.24939,309
37.45138,1962
37.65336,365
37.85535,200
38.05733,160
38.25932,218
38.46131,870
38.66329,313
38.86528,413
39.06726,1251
39.26925,246
39.47124,167
39.67322,183
39.87521,170
40.07719,258
40.27918,151
40.48116,153
40.68315,153
40.88514,153
41.08712,156
41.28911,140
41.49109,125
41.69308,114
41.89507,153
42.09705,178
42.29904,171
42.50102,137
42.70301,144
42.905,149
43.10698,124
43.30897,152
43.51095,157
43.71294,149
43.91492,156
44.11691,157
44.3189,767
44.52088,358
44.72287,140
44.92485,136
45.12684,144
45.32883,323
45.53081,414
45.7328,278
45.93478,157
46.13677,168
46.33875,137
46.54074,217
46.74273,642
46.94471,2115
47.1467,1179
47.34868,203
47.55067,176
47.75266,152
47.95464,118
48.15663,180
48.35861,137
48.5606,171
48.76259,428
48.96457,202
49.16656,373
49.36854,1022
49.57053,643
49.77251,186
49.9745,155
50.17649,139
50.37847,230
50.58046,490
50.78244,323
50.98443,293
51.18642,210
51.3884,178
51.59039,183
51.79237,1271
51.99436,381
52.19634,938
52.39833,627
52.60032,139
52.8023,172
53.00429,480
53.20627,179
53.40826,121
53.61025,114
53.81223,114
54.01422,108
54.2162,258
54.41819,304
54.62018,128
54.82216,125
55.02415,129
55.22613,278
55.42812,242
55.6301,124
55.83209,147
56.03408,137
56.23606,225
56.43805,787
56.64003,1649
56.84202,383
57.04401,182
57.24599,132
57.44798,144
57.64996,200
57.85195,156
58.05393,113
58.25592,94
58.45791,74
58.65989,141
58.86188,133
59.06386,74
59.26585,94
59.46784,70
59.66982,89
59.87181,102
60.07379,96
60.27578,109
60.47776,71
60.67975,65
60.88174,89
61.08372,122
61.28571,137
61.48769,264
61.68968,531
61.89167,351
62.09365,117
62.29564,79
62.49762,77
62.69961,70
62.9016,62
63.10358,51
63.30557,65
63.50755,65
63.70954,66
63.91152,66
64.11351,155
64.3155,657
64.51748,313
64.71947,85
64.92145,101
65.12344,204
65.32543,373
65.52741,248
65.7294,96
65.93138,97
66.13337,74
66.33535,226
66.53734,161
66.73933,102
66.94131,112
67.1433,570
67.34528,619
67.54727,460
67.74926,186
67.95124,77
68.15323,47
68.35521,97
68.5572,69
68.75919,61
68.96117,42
69.16316,42
69.36514,86
69.56713,133
69.76911,57
69.9711,48
69.9771,38

File: 00-069-0233 (PD3).csv
10.04058,956
10.28498,980
10.52937,1017
10.77377,1094
11.01817,904
11.26257,1146
11.50696,908
11.75136,1044
11.99576,978
12.24016,1065
12.48455,1032
12.72895,1044
12.97335,1097
13.21775,1040
13.46214,913
13.70654,1004
13.95094,1027
14.19534,1029
14.43973,985
14.68413,976
14.92853,1050
15.17293,1044
15.41732,1220
15.66172,1294
15.90612,972
16.15051,1042
16.39491,908
16.63931,1007
16.88371,1007
17.1281,996
17.3725,1007
17.6169,1079
17.8613,994
18.10569,999
18.35009,1008
18.59449,1001
18.83889,1009
19.08328,994
19.32768,1031
19.57208,980
19.81648,1013
20.06087,1011
20.30527,1078
20.54967,1101
20.79407,1088
21.03846,1065
21.28286,1151
21.52726,1029
21.77166,1025
22.01605,1052
22.26045,1013
22.50485,1037
22.74924,1060
22.99364,1165
23.23804,1041
23.48244,1034
23.72683,1071
23.97123,1033
24.21563,1023
24.46003,1009
24.70442,1006
24.94882,994
25.19322,960
25.43762,997
25.68201,1031
25.92641,1067
26.17081,986
26.41521,1090
26.6596,1008
26.904,1023
27.1484,1035
27.3928,1092
27.63719,1000
27.88159,991
28.12599,1029
28.37038,966
28.61478,1014
28.85918,1399
29.10358,6304
29.34797,1088
29.59237,1042
29.83677,1321
30.08117,6480
30.32556,1245
30.56996,1039
30.81436,979
31.05876,1056
31.30315,1734
31.54755,2152
31.79195,1078
32.03635,1077
32.28074,1044
32.52514,1015
32.76954,1170
33.01394,3331
33.25833,2996
33.50273,1078
33.74713,1158
33.99153,965
34.23592,1005
34.48032,974
34.72472,971
34.96911,967
35.21351,1123
35.45791,1054
35.70231,1303
35.9467,1039
36.1911,1031
36.4355,1007
36.6799,1045
36.92429,1129
37.16869,1194
37.41309,1166
37.65749,1523
37.90188,1004
38.14628,1077
38.39068,1089
38.63508,1041
38.87947,1013
39.12387,1002
39.36827,1055
39.61267,1126
39.85706,1052
40.10146,1034
40.34586,969
40.59025,1104
40.83465,1003
41.07905,1041
41.32345,1007
41.56784,981
41.81224,969
42.05664,989
42.30104,919
42.54543,981
42.78983,990
43.03423,1035
43.27863,3695
43.52302,1641
43.76742,1122
44.01182,1106
44.25622,1161
44.50061,1074
44.74501,1098
44.98941,992
45.23381,1025
45.4782,1106
45.7226,1087
45.967,1018
46.2114,979
46.45579,1053
46.70019,1511
46.94459,1032
47.18898,1122
47.43338,1045
47.67778,1036
47.92218,1282
48.16657,1089
48.41097,1014
48.65537,1055
48.89977,1004
49.14416,967
49.38856,949
49.63296,1158
49.87736,2488
50.12175,1117
50.36615,1068
50.61055,1080
50.85495,1041
51.09934,2395
51.34374,2373
51.58814,7325
51.83254,1169
52.07693,1081
52.32133,1097
52.56573,1026
52.81012,1037
53.05452,1004
53.29892,984
53.54332,1002
53.78771,1011
54.03211,1066
54.27651,1151
54.52091,1014
54.7653,1047
55.0097,986
55.2541,1000
55.4985,926
55.74289,977
55.98729,1650
56.23169,965
56.47609,962
56.72048,1116
56.96488,2414
57.20928,1530
57.45368,1176
57.69807,1107
57.94247,1007
58.18687,1056
58.43127,1035
58.67566,973
58.92006,993
59.16446,969
59.40885,1069
59.65325,981
59.89765,1573
60.14205,1220
60.38644,1123
60.63084,989
60.87524,1759
61.11964,1074
61.36403,1374
61.60843,6142
61.85283,1229
62.09723,1044
62.34162,1164
62.58602,2188
62.83042,1231
63.07482,1085
63.31921,1033
63.56361,1052
63.80801,968
64.05241,969
64.2968,1001
64.5412,1038
64.7856,1442
65.02999,1155
65.27439,1119
65.51879,1333
65.76319,937
66.00758,989
66.25198,1021
66.49638,1023
66.74078,1079
66.98517,1033
67.22957,1060
67.47397,1117
67.71837,1143
67.96276,1566
68.20716,1317
68.45156,981
68.69596,972
68.94035,1049
69.18475,1016
69.42915,1304
69.67355,1270
69.91794,1042
70.16234,989
70.40674,989
70.65114,1002
70.89553,1024
71.13993,969
71.38433,1025
71.62872,967
71.87312,981
72.11752,1088
72.36192,947
72.60631,1059
72.85071,984
73.09511,1041
73.33951,1153
73.5839,1027
73.8283,1033
74.0727,1060
74.3171,1002
74.56149,1302
74.80589,1025
75.05029,1103
75.29469,1104
75.53908,1063
75.78348,1138
76.02788,1038
76.27228,1058
76.51667,1043
76.76107,1016
77.00547,1065
77.24986,1106
77.49426,986
77.73866,1035
77.98306,1001
78.22745,1040
78.47185,968
78.71625,1134
78.96065,1020
79.20504,1094
79.44944,1024
79.69384,998
79.93824,994
80.03224,966

File: 00-069-0772 (PD3).csv
5,72
5.4,54
5.8,73
6.2,67
6.6,69
7,59
7.4,60
7.8,66
8.2,70
8.6,70
9,58
9.4,64
9.8,59
10.2,76
10.6,65
11,70
11.4,60
11.8,69
12.2,85
12.6,69
13,74
13.4,71
13.8,64
14.2,75
14.6,64
15,67
15.4,59
15.8,53
16.2,71
16.6,57
17,56
17.4,56
17.8,62
18.2,70
18.6,56
19,55
19.4,59
19.8,55
20.2,54
20.6,73
21,53
21.4,70
21.8,64
22.2,52
22.6,68
23,71
23.4,72
23.8,60
24.2,70
24.6,94
25,2016
25.4,108
25.8,72
26.2,61
26.6,70
27,58
27.4,73
27.8,52
28.2,61
28.6,67
29,56
29.4,54
29.8,63
30.2,65
30.6,138
31,2326
31.4,123
31.8,67
32.2,65
32.6,52
33,81
33.4,427
33.8,113
34.2,60
34.6,63
35,60
35.4,81
35.8,153
36.2,67
36.6,65
37,101
37.4,157
37.8,2926
38.2,1727
38.6,140
39,83
39.4,79
39.8,72
40.2,70
40.6,63
41,55
41.4,72
41.8,205
42.2,805
42.6,93
43,68
43.4,71
43.8,123
44.2,1134
44.6,164
45,88
45.4,59
45.8,71
46.2,74
46.6,60
47,60
47.4,76
47.8,260
48.2,141
48.6,69
49,60
49.4,57
49.8,68
50.2,64
50.6,57
51,69
51.4,55
51.8,65
52.2,74
52.6,67
53,187
53.4,68
53.8,68
54.2,71
54.6,62
55,53
55.4,71
55.8,58
56.2,70
56.6,107
57,58
57.4,74
57.8,58
58.2,60
58.6,146
59,73
59.4,145
59.8,228
60.2,208
60.6,77
61,89
61.4,94
61.8,55
62.2,63
62.6,60
63,229
63.4,95
63.8,63
64.2,102
64.6,271
65,77
65.4,151
65.8,226
66.2,64
66.6,64
67,58
67.4,61
67.8,68
68.2,117
68.6,675
69,89
69.4,64
69.8,152
70.2,193
70.6,68
71,57
71.4,55
71.8,151
72.2,67
72.6,85
73,146
73.4,61
73.8,98
74.2,62
74.6,72
75,62
75.4,86
75.8,60
76.2,53
76.6,73
77,219
77.4,60
77.8,71
78.2,111
78.6,60
79,64
79.4,59
79.8,69
80.2,68
80.6,60
81,133
81.4,93
81.8,74
82.2,100
82.6,131
83,88
83.4,68
83.8,212
84.2,62
84.6,59
85,157
85.4,218
85.8,112
86.2,69
86.6,74
87,57
87.4,76
87.8,139
88.2,73
88.6,56
89,58
89.4,70
89.8,75
90.2,72
90.6,100
91,59
91.4,68
91.8,81
92.2,80
92.6,63
93,73
93.4,105
93.8,144
94.2,98
94.6,89
95,68
95.4,75
95.8,100
96.2,80
96.6,57
97,70
97.4,60
97.8,70
98.2,71
98.6,74
99,61
99.4,64
99.8,98
100.2,91
100.6,99
101,69
101.4,82
101.8,72
102.2,73
102.6,124
103,73
103.4,72
103.8,113
104.2,70
104.6,144
105,69
105.4,142
105.8,85
106.2,57
106.6,89
107,72
107.4,111
107.8,71
108.2,62
108.6,56
109,60
109.4,64
109.8,157
110.2,68
110.6,65
111,65
111.4,55
111.8,87
112.2,55
112.6,81
113,72
113.4,66
113.8,125
114.2,321
114.6,110
115,67
115.4,61
115.8,53
116.2,66
116.6,82
117,73
117.4,60
117.8,72
118.2,74
118.6,72
119,60
119.4,70
119.8,101
120,89