Folder: spectrumdavit/data/xrd_icdd_PDF (part 6)

File: 00-059-0268 (PD3).csv
5,1737
5.4,2000
5.8,1899
6.2,1717
6.6,1656
7,1555
7.4,1252
7.8,1293
8.2,1212
8.6,1171
9,1151
9.4,1050
9.8,1010
10.2,1010
10.6,1192
11,1151
11.4,929
11.8,808
12.2,747
12.6,747
13,747
13.4,727
13.8,687
14.2,808
14.6,727
15,727
15.4,715
15.8,747
16.2,687
16.6,646
17,626
17.4,586
17.8,667
18.2,606
18.6,485
19,525
19.4,545
19.8,606
20.2,566
20.6,525
21,566
21.4,667
21.8,2505
22.2,566
22.6,404
23,566
23.4,465
23.8,543
24.2,542
24.6,545
25,444
25.4,430
25.8,432
26.2,768
26.6,525
27,424
27.4,528
27.8,549
28.2,485
28.6,949
29,6121
29.4,1071
29.8,667
30.2,768
30.6,870
31,4613
31.4,1220
31.8,786
32.2,694
32.6,722
33,2650
33.4,899
33.8,826
34.2,1778
34.6,2680
35,849
35.4,734
35.8,706
36.2,929
36.6,8091
37,949
37.4,802
37.8,667
38.2,628
38.6,596
39,610
39.4,667
39.8,610
40.2,707
40.6,646
41,889
41.4,3050
41.8,1555
42.2,687
42.6,715
43,842
43.4,687
43.8,765
44.2,1273
44.6,2323
45,646
45.4,733
45.8,653
46.2,629
46.6,746
47,687
47.4,1414
47.8,719
48.2,615
48.6,670
49,681
49.4,630
49.8,671
50.2,651
50.6,656
51,707
51.4,715
51.8,617
52.2,619
52.6,622
53,645
53.4,747
53.8,949
54.2,1737
54.6,788
55,3919
55.4,1050
55.8,817
56.2,747
56.6,768
57,710
57.4,700
57.8,669
58.2,681
58.6,747
59,725
59.4,744
59.8,808
60.2,1899
60.6,889
61,586
61.4,768
61.8,747
62.2,929
62.6,908
63,779
63.4,707
63.8,587
64.2,707
64.6,874
65,984
65.4,605
65.8,656
66.2,727
66.6,856
67,1567
67.4,750
67.8,793
68.2,1411
68.6,844
69,873
69.4,869
69.8,626
70.2,1192
70.6,1111
71,1576
71.4,1838
71.8,667
72.2,869
72.6,1495
73,757
73.4,566
73.8,566
74.2,538
74.6,519
75,519
75.4,626
75.8,542
76.2,646
76.6,545
77,571
77.4,623
77.8,1050
78.2,626
78.6,424
79,465
79.4,444
79.8,505
80.2,505
80.6,646
81,606
81.4,707
81.8,1697
82.2,889
82.6,626
83,505
83.4,586
83.8,465
84.2,545
84.6,646
85,485
85.4,626
85.8,929
86.2,889
86.6,603
87,626
87.4,525
87.8,646
88.2,566
88.6,444
89,667
89.4,566
89.8,646
90.2,869
90.6,808
91,586
91.4,525
91.8,626
92.2,646
92.6,626
93,606
93.4,587
93.8,545
94.2,768
94.6,808
95,606
95.4,626
95.8,606
96.2,869
96.6,667
97,687
97.4,768
97.8,848
98.2,707
98.6,667
99,626
99.4,687
99.8,869
100.2,949
100.6,889
101,687
101.4,808
101.8,747
102.2,727
102.6,606
103,586
103.4,707
103.8,624
104.2,678
104.6,1010
105,889
105.4,889
105.8,929
106.2,1050
106.6,828
107,808
107.4,667
107.8,566
108.2,747
108.6,949
109,1091
109.4,869
109.8,768
110.2,808
110.6,707
111,1192
111.4,990
111.8,808
112.2,566
112.6,646
113,566
113.4,687
113.8,949
114.2,747
114.6,990
115,909
115.4,869
115.8,808
116.2,566
116.6,626
117,525
117.4,606
117.8,566
118.2,586
118.6,606
119,606
119.4,606
119.8,566
120.02,606

File: 00-059-0269 (PD3).csv
5,1376
5.4,1252
5.8,1211
6.2,1232
6.6,1220
7,1208
7.4,1233
7.8,1222
8.2,1233
8.6,1207
9,1242
9.4,1215
9.8,1208
10.2,1202
10.6,1206
11,1207
11.4,1246
11.8,1251
12.2,1289
12.6,1182
13,1172
13.4,1171
13.8,1132
14.2,1120
14.6,1127
15,1106
15.4,1140
15.8,1135
16.2,1085
16.6,1103
17,1082
17.4,1083
17.8,1080
18.2,1097
18.6,1079
19,1064
19.4,1035
19.8,1027
20.2,1018
20.6,1009
21,991
21.4,1009
21.8,1035
22.2,1012
22.6,957
23,984
23.4,2781
23.8,969
24.2,927
24.6,885
25,855
25.4,855
25.8,863
26.2,760
26.6,814
27,893
27.4,834
27.8,747
28.2,737
28.6,759
29,762
29.4,869
29.8,983
30.2,5632
30.6,971
31,651
31.4,590
31.8,581
32.2,581
32.6,671
33,722
33.4,741
33.8,629
34.2,613
34.6,664
35,679
35.4,592
35.8,1373
36.2,1439
36.6,498
37,477
37.4,564
37.8,611
38.2,635
38.6,579
39,502
39.4,612
39.8,550
40.2,431
40.6,514
41,530
41.4,544
41.8,536
42.2,485
42.6,433
43,522
43.4,1700
43.8,586
44.2,390
44.6,480
45,439
45.4,1093
45.8,468
46.2,527
46.6,341
47,432
47.4,438
47.8,906
48.2,334
48.6,385
49,483
49.4,477
49.8,1649
50.2,503
50.6,373
51,326
51.4,322
51.8,314
52.2,347
52.6,307
53,375
53.4,381
53.8,468
54.2,316
54.6,346
55,297
55.4,326
55.8,302
56.2,417
56.6,314
57,269
57.4,399
57.8,299
58.2,287
58.6,388
59,334
59.4,388
59.8,331
60.2,328
60.6,399
61,3133
61.4,436
61.8,322
62.2,458
62.6,695
63,553
63.4,275
63.8,287
64.2,403
64.6,1102
65,370
65.4,293
65.8,265
66.2,286
66.6,262
67,242
67.4,308
67.8,587
68.2,311
68.6,337
69,233
69.4,593
69.8,408
70.2,267
70.6,255
71,374
71.4,314
71.8,272
72.2,291
72.6,362
73,429
73.4,308
73.8,262
74.2,661
74.6,1136
75,275
75.4,291
75.8,356
76.2,450
76.6,251
77,251
77.4,208
77.8,237
78.2,208
78.6,217
79,193
79.4,243
79.8,210
80.2,214
80.6,379
81,310
81.4,234
81.8,242
82.2,231
82.6,205
83,187
83.4,178
83.8,255
84.2,204
84.6,189
85,242
85.4,236
85.8,248
86.2,255
86.6,260
87,382
87.4,284
87.8,245
88.2,281
88.6,368
89,195
89.4,258
89.8,447
90.2,616
90.6,269
91,208
91.4,202
91.8,227
92.2,236
92.6,260
93,488
93.4,349
93.8,195
94.2,281
94.6,504
95,263
95.4,217
95.8,234
96.2,242
96.6,220
97,211
97.4,249
97.8,628
98.2,284
98.6,258
99,412
99.4,997
99.8,384
100.2,225
100.6,220
101,236
101.4,313
101.8,282
102.2,368
102.6,467
103,302
103.4,231
103.8,210
104.2,213
104.6,223
105,234
105.4,350
105.8,341
106.2,240
106.6,227
107,240
107.4,257
107.8,210
108.2,246
108.6,228
109,252
109.4,225
109.8,198
110.2,192
110.6,210
111,213
111.4,234
111.8,251
112.2,541
112.6,420
113,255
113.4,231
113.8,272
114.2,272
114.6,217
115,251
115.4,599
115.8,403
116.2,254
116.6,208
117,231
117.4,222
117.8,213
118.2,243
118.6,239
119,320
119.4,276
119.8,276
120.02,230

File: 00-059-0727 (PD3).csv
5.021,2042
5.421,1952
5.821,1840
6.221,1686
6.621,1530
7.021,1518
7.421,1390
7.821,1409
8.221,1304
8.621,1294
9.021,1198
9.421,1114
9.821,1113
10.221,1052
10.621,1067
11.021,1011
11.421,967
11.821,992
12.221,891
12.621,937
13.021,1110
13.421,2792
13.821,2162
14.221,14851
14.621,1479
15.021,828
15.421,791
15.821,847
16.221,974
16.621,3593
17.021,1071
17.421,863
17.821,797
18.221,734
18.621,776
19.021,719
19.421,756
19.821,733
20.221,709
20.621,686
21.021,706
21.421,711
21.821,701
22.221,720
22.621,796
23.021,748
23.421,2554
23.821,715
24.221,720
24.621,723
25.021,781
25.421,10190
25.821,777
26.221,733
26.621,7035
27.021,1181
27.421,49589
27.821,31032
28.221,896
28.621,2167
29.021,33279
29.421,792
29.821,748
30.221,760
30.621,1043
31.021,28881
31.421,756
31.821,697
32.221,608
32.621,620
33.021,3608
33.421,1022
33.821,19231
34.221,874
34.621,545
35.021,1984
35.421,1704
35.821,1140
36.221,765
36.621,610
37.021,852
37.421,1963
37.821,1755
38.221,719
38.621,468
39.021,478
39.421,604
39.821,476
40.221,618
40.621,795
41.021,571
41.421,1532
41.821,2980
42.221,631
42.621,1386
43.021,782
43.421,645
43.821,1383
44.221,1954
44.621,729
45.021,575
45.421,604
45.821,2013
46.221,988
46.621,11897
47.021,1296
47.421,5598
47.821,5859
48.221,4146
48.621,865
49.021,889
49.421,5503
49.821,1444
50.221,1840
50.621,3183
51.021,5508
51.421,851
51.821,2643
52.221,6256
52.621,686
53.021,647
53.421,649
53.821,1033
54.221,923
54.621,8913
55.021,2182
55.421,917
55.821,713
56.221,882
56.621,7573
57.021,1929
57.421,2168
57.821,1704
58.221,652
58.621,617
59.021,558
59.421,969
59.821,1826
60.221,992
60.621,2472
61.021,767
61.421,1387
61.821,3758
62.221,5323
62.621,2367
63.021,765
63.421,3167
63.821,1946
64.221,742
64.621,2999
65.021,1073
65.421,649
65.821,1727
66.221,792
66.621,1950
67.021,1131
67.421,1596
67.821,1237
68.221,698
68.621,1305
69.021,852
69.421,833
69.821,775
70.221,507
70.621,505
71.021,667
71.421,1428
71.821,978
72.221,2287
72.621,1091
73.021,924
73.421,1197
73.821,982
74.221,1952
74.621,1037
75.021,2378
75.421,2008
75.821,1247
76.221,5728
76.621,999
77.021,3623
77.421,4763
77.821,2085
78.221,719
78.621,1535
79.021,1501
79.421,1356
79.821,1215
80.221,994
80.621,1583
81.021,1107
81.421,804
81.821,1005
82.221,1253
82.621,1928
83.021,1978
83.421,1322
83.821,658
84.221,633
84.621,714
85.021,1018
85.421,849
85.821,597
86.221,582
86.621,720
87.021,1157
87.421,2104
87.821,2064
88.221,1465
88.621,640
89.021,565
89.421,509
89.821,644
90.221,3897
90.621,1532
91.021,2444
91.421,1273
91.821,1288
92.221,1932
92.621,773
93.021,625
93.421,1075
93.821,932
94.221,688
94.621,1328
95.021,689
95.421,644
95.821,941
96.221,719
96.621,700
97.021,1235
97.421,1567
97.821,1434
98.221,1150
98.621,801
99.021,724
99.421,1092
99.821,1322
100.221,750
100.621,671
101.021,1365
101.421,1017
101.821,955
102.221,763
102.621,896
103.021,867
103.421,874
103.821,1557
104.221,1915
104.621,1500
105.021,1070
105.421,1296
105.821,1050
106.221,913
106.621,1048
107.021,1035
107.421,987
107.821,910
108.221,975
108.621,928
109.021,995
109.421,899
109.821,1306
110.221,1385
110.621,1220
111.021,1581
111.421,1166
111.821,1252
112.221,1613
112.621,1954
113.021,1566
113.421,1082
113.821,1811
114.221,1514
114.621,1840
115.021,2077
115.421,1894
115.821,1368
116.221,1072
116.621,1591
117.021,1880
117.421,2188
117.821,1331
118.221,994
118.621,948
119.021,992
119.421,950
119.821,1185
120.021,1262

File: 00-059-0838 (PD3).csv
5,92
5.46,85
5.92,88
6.38,85
6.84,81
7.3,72
7.76,79
8.22,76
8.68,62
9.14,76
9.6,85
10.06,67
10.52,50
10.98,59
11.44,69
11.9,62
12.36,67
12.82,62
13.28,72
13.74,48
14.2,62
14.66,66
15.12,76
15.58,77
16.04,222
16.5,149
16.96,66
17.42,59
17.88,46
18.34,55
18.8,58
19.26,67
19.72,55
20.18,61
20.64,53
21.1,56
21.56,56
22.02,56
22.48,48
22.94,37
23.4,59
23.86,55
24.32,52
24.78,53
25.24,44
25.7,56
26.16,53
26.62,894
27.08,146
27.54,56
28,69
28.46,56
28.92,55
29.38,49
29.84,53
30.3,44
30.76,45
31.22,52
31.68,56
32.14,48
32.6,76
33.06,2798
33.52,50
33.98,48
34.44,53
34.9,46
35.36,58
35.82,37
36.28,46
36.74,125
37.2,139
37.66,44
38.12,41
38.58,44
39.04,40
39.5,159
39.96,38
40.42,69
40.88,94
41.34,48
41.8,29
42.26,48
42.72,45
43.18,49
43.64,38
44.1,48
44.56,31
45.02,45
45.48,55
45.94,85
46.4,713
46.86,53
47.32,38
47.78,41
48.24,41
48.7,45
49.16,38
49.62,53
50.08,204
50.54,3204
51,88
51.46,53
51.92,44
52.38,40
52.84,41
53.3,45
53.76,44
54.22,55
54.68,71
55.14,480
55.6,79
56.06,53
56.52,53
56.98,42
57.44,38
57.9,55
58.36,46
58.82,42
59.28,38
59.74,30
60.2,72
60.66,2200
61.12,77
61.58,53
62.04,52
62.5,36
62.96,44
63.42,38
63.88,53
64.34,369
64.8,38
65.26,44
65.72,50
66.18,53
66.64,1267
67.1,74
67.56,41
68.02,85
68.48,480
68.94,135
69.4,918
69.86,77
70.32,59
70.78,49
71.24,34
71.7,45
72.16,48
72.62,45
73.08,48
73.54,50
74,29
74.46,45
74.92,38
75.38,48
75.84,67
76.3,250
76.76,139
77.22,61
77.68,59
78.14,58
78.6,112
79.06,154
79.52,56
79.98,83
80.44,520
80.9,193
81.36,635
81.82,104
82.28,72
82.74,66
83.2,44
83.66,59
84.12,64
84.58,94
85.04,515
85.5,72
85.96,66
86.42,55
86.88,66
87.34,66
87.8,96
88.26,259
88.72,71
89.18,61
89.64,56
90.1,66
90.56,180
91.02,46
91.48,66
91.94,90
92.4,59
92.86,44
93.32,42
93.78,58
94.24,328
94.7,303
95.16,67
95.62,48
96.08,64
96.54,369
97,90
97.46,71
97.92,53
98.38,50
98.84,49
99.3,56
99.76,90
100.22,59
100.68,52
101.14,66
101.6,50
102.06,61
102.52,59
102.98,66
103.44,128
103.9,225
104.36,416
104.82,420
105.28,58
105.74,79
106.2,149
106.66,85
107.12,69
107.58,56
108.04,74
108.5,166
108.96,76
109.42,76
109.88,48
110.34,49
110.8,45
111.26,53
111.72,41
112.18,67
112.64,58
113.1,76
113.56,62
114.02,144
114.48,149
114.94,85
115.4,67
115.86,246
116.32,185
116.78,955
117.24,543
117.7,137
118.16,94
118.62,562
119.08,357
119.54,79
120,71
120.46,77
120.92,74
121.38,66
121.84,55
122.3,66
122.76,62
123.22,69
123.68,81
124.14,96
124.6,262
125.06,237
125.52,243
125.98,94
126.44,92
126.9,64
127.36,85
127.82,161
128.28,117
128.74,86
129.2,96
129.66,620
130.12,222
130.58,256
131.04,328
131.5,458
131.96,90
132.42,76
132.88,88
133.34,88
133.8,72
134.26,85
134.72,62
135.18,86
135.64,100
136.1,128
136.56,106
137.02,102
137.48,85
137.94,83
138.4,66
138.86,77
139.32,77
139.78,71
140,96

File: 00-059-0840 (PD3).csv
5,188
5.46,112
5.92,172
6.38,132
6.84,142
7.3,159
7.76,174
8.22,151
8.68,151
9.14,137
9.6,128
10.06,166
10.52,172
10.98,154
11.44,166
11.9,151
12.36,132
12.82,156
13.28,180
13.74,156
14.2,177
14.66,190
15.12,279
15.58,216
16.04,139
16.5,154
16.96,250
17.42,185
17.88,174
18.34,262
18.8,240
19.26,210
19.72,328
20.18,199
20.64,169
21.1,156
21.56,144
22.02,149
22.48,199
22.94,166
23.4,154
23.86,169
24.32,166
24.78,292
25.24,164
25.7,1109
26.16,246
26.62,174
27.08,246
27.54,369
28,4070
28.46,520
28.92,1069
29.38,210
29.84,106
30.3,123
30.76,350
31.22,243
31.68,139
32.14,222
32.6,204
33.06,137
33.52,734
33.98,207
34.44,231
34.9,762
35.36,317
35.82,166
36.28,328
36.74,96
37.2,243
37.66,132
38.12,108
38.58,128
39.04,98
39.5,174
39.96,313
40.42,1156
40.88,493
41.34,1190
41.8,317
42.26,139
42.72,188
43.18,100
43.64,502
44.1,156
44.56,745
45.02,237
45.48,90
45.94,433
46.4,161
46.86,388
47.32,384
47.78,128
48.24,292
48.7,484
49.16,108
49.62,225
50.08,130
50.54,180
51,234
51.46,502
51.92,172
52.38,154
52.84,324
53.3,269
53.76,253
54.22,121
54.68,497
55.14,182
55.6,266
56.06,807
56.52,172
56.98,467
57.44,237
57.9,331
58.36,272
58.82,428
59.28,231
59.74,317
60.2,400
60.66,493
61.12,256
61.58,202
62.04,350
62.5,282
62.96,225
63.42,156
63.88,169
64.34,202
64.8,253
65.26,77
65.72,119
66.18,172
66.64,193
67.1,174
67.56,313
68.02,193
68.48,119
68.94,282
69.4,149
69.86,135
70.32,188
70.78,306
71.24,276
71.7,159
72.16,552
72.62,357
73.08,144
73.54,130
74,137
74.46,149
74.92,144
75.38,225
75.84,185
76.3,276
76.76,154
77.22,121
77.68,204
78.14,204
78.6,193
79.06,130
79.52,188
79.98,262
80.44,380
80.9,213
81.36,317
81.82,306
82.28,196
82.74,177
83.2,243
83.66,177
84.12,172
84.58,190
85.04,237
85.5,193
85.96,130
86.42,144
86.88,272
87.34,219
87.8,222
88.26,139
88.72,119
89.18,149
89.64,222
90.1,292
90.56,350
91.02,328
91.48,237
91.94,246
92.4,190
92.86,286
93.32,246
93.78,199
94.24,228
94.7,228
95.16,139
95.62,161
96.08,139
96.54,225
97,202
97.46,144
97.92,166
98.38,149
98.84,164
99.3,139
99.76,130
100.22,139
100.68,196
101.14,164
101.6,188
102.06,228
102.52,164
102.98,125
103.44,159
103.9,139
104.36,130
104.82,114
105.28,135
105.74,185
106.2,193
106.66,154
107.12,149
107.58,106
108.04,125
108.5,156
108.96,207
109.42,144
109.88,146
110.34,96
110.8,142
111.26,121
111.72,156
112.18,177
112.64,149
113.1,117
113.56,128
114.02,146
114.48,125
114.94,125
115.4,151
115.86,159
116.32,196
116.78,196
117.24,219
117.7,213
118.16,320
118.62,216
119.08,125
119.54,199
120,174
120.46,188
120.92,228
121.38,240
121.84,164
122.3,199
122.76,169
123.22,149
123.68,96
124.14,135
124.6,132
125.06,169
125.52,213
125.98,169
126.44,164
126.9,196
127.36,169
127.82,166
128.28,146
128.74,139
129.2,193
129.66,185
130.12,161
130.58,121
131.04,137
131.5,185
131.96,161
132.42,161
132.88,159
133.34,151
133.8,166
134.26,199
134.72,149
135.18,185
135.64,154
136.1,202
136.56,182
137.02,193
137.48,174
137.94,164
138.4,174
138.86,199
139.32,204
139.78,216
139.88,169

File: 00-059-0841 (PD3).csv
5,177
5.46,121
5.92,174
6.38,146
6.84,121
7.3,108
7.76,100
8.22,130
8.68,156
9.14,142
9.6,144
10.06,128
10.52,123
10.98,137
11.44,106
11.9,130
12.36,144
12.82,144
13.28,112
13.74,166
14.2,159
14.66,174
15.12,193
15.58,259
16.04,172
16.5,166
16.96,219
17.42,190
17.88,159
18.34,219
18.8,361
19.26,174
19.72,216
20.18,196
20.64,130
21.1,149
21.56,161
22.02,102
22.48,188
22.94,88
23.4,106
23.86,196
24.32,137
24.78,246
25.24,123
25.7,353
26.16,350
26.62,102
27.08,117
27.54,185
28,3636
28.46,625
28.92,2632
29.38,156
29.84,112
30.3,112
30.76,132
31.22,1197
31.68,320
32.14,121
32.6,412
33.06,100
33.52,1475
33.98,119
34.44,392
34.9,416
35.36,380
35.82,428
36.28,125
36.74,172
37.2,119
37.66,88
38.12,74
38.58,88
39.04,164
39.5,169
39.96,102
40.42,424
40.88,480
41.34,317
41.8,576
42.26,144
42.72,92
43.18,156
43.64,117
44.1,199
44.56,119
45.02,392
45.48,117
45.94,106
46.4,454
46.86,182
47.32,119
47.78,276
48.24,85
48.7,745
49.16,169
49.62,108
50.08,219
50.54,164
51,177
51.46,724
51.92,666
52.38,100
52.84,180
53.3,600
53.76,151
54.22,202
54.68,149
55.14,369
55.6,174
56.06,1089
56.52,213
56.98,154
57.44,156
57.9,306
58.36,222
58.82,286
59.28,590
59.74,177
60.2,142
60.66,306
61.12,207
61.58,303
62.04,342
62.5,376
62.96,256
63.42,169
63.88,121
64.34,104
64.8,282
65.26,185
65.72,53
66.18,130
66.64,207
67.1,161
67.56,190
68.02,289
68.48,139
68.94,53
69.4,180
69.86,149
70.32,317
70.78,137
71.24,225
71.7,228
72.16,202
72.62,246
73.08,335
73.54,144
74,135
74.46,117
74.92,123
75.38,121
75.84,204
76.3,225
76.76,193
77.22,108
77.68,149
78.14,159
78.6,142
79.06,151
79.52,125
79.98,137
80.44,339
80.9,365
81.36,213
81.82,240
82.28,202
82.74,132
83.2,159
83.66,237
84.12,156
84.58,169
85.04,149
85.5,199
85.96,137
86.42,114
86.88,121
87.34,310
87.8,159
88.26,246
88.72,137
89.18,139
89.64,146
90.1,121
90.56,222
91.02,269
91.48,231
91.94,139
92.4,207
92.86,174
93.32,216
93.78,188
94.24,207
94.7,202
95.16,161
95.62,174
96.08,128
96.54,119
97,219
97.46,174
97.92,117
98.38,117
98.84,121
99.3,125
99.76,106
100.22,169
100.68,128
101.14,130
101.6,114
102.06,139
102.52,161
102.98,146
103.44,130
103.9,139
104.36,144
104.82,77
105.28,132
105.74,102
106.2,182
106.66,204
107.12,139
107.58,85
108.04,61
108.5,98
108.96,108
109.42,92
109.88,154
110.34,135
110.8,85
111.26,119
111.72,180
112.18,130
112.64,79
113.1,125
113.56,112
114.02,88
114.48,98
114.94,110
115.4,90
115.86,121
116.32,219
116.78,177
117.24,146
117.7,146
118.16,159
118.62,222
119.08,289
119.54,202
120,185
120.46,182
120.92,190
121.38,169
121.84,156
122.3,207
122.76,144
123.22,79
123.68,128
124.14,119
124.6,154
125.06,100
125.52,121
125.98,177
126.44,161
126.9,137
127.36,156
127.82,172
128.28,119
128.74,159
129.2,142
129.66,146
130.12,137
130.58,149
131.04,112
131.5,110
131.96,154
132.42,151
132.88,193
133.34,154
133.8,177
134.26,88
134.72,164
135.18,182
135.64,159
136.1,210
136.56,128
137.02,174
137.48,166
137.94,174
138.4,166
138.86,156
139.32,169
139.78,144
139.88,130

File: 00-059-0842 (PD3).csv
5,137
5.46,132
5.92,161
6.38,119
6.84,137
7.3,110
7.76,146
8.22,142
8.68,169
9.14,139
9.6,112
10.06,149
10.52,139
10.98,130
11.44,121
11.9,156
12.36,132
12.82,110
13.28,154
13.74,159
14.2,185
14.66,276
15.12,190
15.58,174
16.04,121
16.5,164
16.96,154
17.42,166
17.88,185
18.34,190
18.8,193
19.26,231
19.72,135
20.18,207
20.64,303
21.1,146
21.56,149
22.02,142
22.48,130
22.94,144
23.4,108
23.86,79
24.32,92
24.78,100
25.24,110
25.7,156
26.16,146
26.62,454
27.08,128
27.54,106
28,177
28.46,1325
28.92,313
29.38,610
29.84,1122
30.3,119
30.76,139
31.22,83
31.68,123
32.14,2333
32.6,219
33.06,112
33.52,98
33.98,130
34.44,259
34.9,117
35.36,90
35.82,269
36.28,100
36.74,123
37.2,112
37.66,98
38.12,98
38.58,475
39.04,121
39.5,231
39.96,121
40.42,137
40.88,92
41.34,96
41.8,784
42.26,286
42.72,605
43.18,350
43.64,86
44.1,125
44.56,172
45.02,408
45.48,286
45.94,225
46.4,94
46.86,72
47.32,240
47.78,276
48.24,234
48.7,110
49.16,149
49.62,520
50.08,404
50.54,83
51,59
51.46,56
51.92,328
52.38,125
52.84,462
53.3,237
53.76,90
54.22,128
54.68,462
55.14,296
55.6,96
56.06,282
56.52,67
56.98,269
57.44,681
57.9,234
58.36,335
58.82,86
59.28,256
59.74,154
60.2,250
60.66,335
61.12,213
61.58,396
62.04,404
62.5,110
62.96,62
63.42,146
63.88,88
64.34,279
64.8,79
65.26,67
65.72,132
66.18,154
66.64,86
67.1,86
67.56,149
68.02,269
68.48,339
68.94,96
69.4,135
69.86,276
70.32,357
70.78,132
71.24,169
71.7,225
72.16,210
72.62,467
73.08,210
73.54,100
74,471
74.46,154
74.92,164
75.38,177
75.84,190
76.3,106
76.76,144
77.22,196
77.68,204
78.14,331
78.6,246
79.06,156
79.52,225
79.98,172
80.44,199
80.9,125
81.36,177
81.82,154
82.28,132
82.74,172
83.2,299
83.66,357
84.12,253
84.58,169
85.04,199
85.5,102
85.96,219
86.42,164
86.88,100
87.34,100
87.8,216
88.26,86
88.72,119
89.18,90
89.64,174
90.1,98
90.56,193
91.02,119
91.48,202
91.94,66
92.4,161
92.86,161
93.32,306
93.78,225
94.24,130
94.7,177
95.16,132
95.62,240
96.08,98
96.54,144
97,161
97.46,172
97.92,130
98.38,119
98.84,121
99.3,213
99.76,149
100.22,172
100.68,100
101.14,130
101.6,149
102.06,142
102.52,137
102.98,121
103.44,114
103.9,108
104.36,139
104.82,135
105.28,128
105.74,100
106.2,79
106.66,146
107.12,119
107.58,146
108.04,83
108.5,86
108.96,108
109.42,72
109.88,85
110.34,74
110.8,166
111.26,154
111.72,98
112.18,142
112.64,79
113.1,139
113.56,159
114.02,135
114.48,130
114.94,149
115.4,76
115.86,139
116.32,159
116.78,94
117.24,164
117.7,119
118.16,156
118.62,149
119.08,85
119.54,83
120,123
120.46,146
120.92,202
121.38,132
121.84,225
122.3,193
122.76,177
123.22,135
123.68,146
124.14,119
124.6,166
125.06,130
125.52,196
125.98,210
126.44,137
126.9,149
127.36,188
127.82,130
128.28,117
128.74,114
129.2,139
129.66,161
130.12,166
130.58,83
131.04,123
131.5,139
131.96,222
132.42,243
132.88,164
133.34,154
133.8,123
134.26,100
134.72,156
135.18,156
135.64,185
136.1,108
136.56,130
137.02,144
137.48,114
137.94,172
138.4,159
138.86,159
139.32,210
139.78,154
139.88,137

File: 00-060-0117 (PD3).csv
10,4535
10.32,4025
10.64,3950
10.96,3264
11.28,2679
11.6,2699
11.92,2420
12.24,2563
12.56,2162
12.88,2169
13.2,2080
13.52,2250
13.84,2019
14.16,1747
14.48,2196
14.8,2026
15.12,1931
15.44,2087
15.76,1958
16.08,1863
16.4,2114
16.72,2053
17.04,2067
17.36,1740
17.68,2155
18,2250
18.32,2169
18.64,2189
18.96,2278
19.28,2223
19.6,2264
19.92,2359
20.24,2067
20.56,2114
20.88,2148
21.2,2101
21.52,1958
21.84,2080
22.16,2332
22.48,2386
22.8,2495
23.12,2856
23.44,2162
23.76,2590
24.08,6099
24.4,2577
24.72,2543
25.04,2393
25.36,2454
25.68,2346
26,2543
26.32,2550
26.64,2726
26.96,3971
27.28,9384
27.6,2536
27.92,2794
28.24,2726
28.56,3026
28.88,2733
29.2,3155
29.52,3978
29.84,3604
30.16,2937
30.48,4814
30.8,5242
31.12,3338
31.44,3100
31.76,3094
32.08,3128
32.4,3032
32.72,3209
33.04,3828
33.36,7888
33.68,46627
34,36121
34.32,5528
34.64,5746
34.96,24119
35.28,4005
35.6,3855
35.92,8935
36.24,3678
36.56,3066
36.88,2998
37.2,2842
37.52,3134
37.84,2985
38.16,2903
38.48,3019
38.8,2930
39.12,2849
39.44,2543
39.76,2726
40.08,2393
40.4,3202
40.72,2978
41.04,2611
41.36,3053
41.68,3162
42,3032
42.32,5100
42.64,3590
42.96,7690
43.28,3400
43.6,3202
43.92,3094
44.24,3889
44.56,13613
44.88,4080
45.2,3230
45.52,2849
45.84,2713
46.16,3780
46.48,3372
46.8,3175
47.12,3542
47.44,2903
47.76,3366
48.08,3454
48.4,3583
48.72,2801
49.04,3277
49.36,8636
49.68,5011
50,3542
50.32,2862
50.64,3413
50.96,3413
51.28,3597
51.6,3366
51.92,4188
52.24,12892
52.56,5555
52.88,4134
53.2,3542
53.52,5059
53.84,4311
54.16,3685
54.48,5474
54.8,3835
55.12,5623
55.44,4093
55.76,4012
56.08,6045
56.4,3930
56.72,3454
57.04,3488
57.36,3814
57.68,3461
58,3447
58.32,3209
58.64,3801
58.96,4773
59.28,8010
59.6,4760
59.92,6623
60.24,4828
60.56,6970
60.88,3848
61.2,3502
61.52,3828
61.84,4902
62.16,4202
62.48,3631
62.8,3556
63.12,3651
63.44,3767
63.76,5834
64.08,5140
64.4,6643
64.72,4175
65.04,4182
65.36,5372
65.68,5888
66,4250
66.32,3910
66.64,4562
66.96,11104
67.28,7201
67.6,7248
67.92,6392
68.24,4739
68.56,3814
68.88,3814
69.2,5045
69.52,5297
69.84,3828
70.16,3515
70.48,3726
70.8,4324
71.12,3372
71.44,3434
71.76,3774
72.08,3726
72.4,4141
72.72,4624
73.04,3447
73.36,3549
73.68,4032
74,3556
74.32,4012
74.64,3427
74.96,3760
75.28,3536
75.6,3624
75.92,3692
76.24,4277
76.56,5195
76.88,3719
77.2,4739
77.52,4705
77.84,4562
78.16,4175
78.48,4318
78.8,5045
79.12,4780
79.44,4624
79.76,4243
80.08,5555
80.4,4909
80.72,3774
81.04,3964
81.36,3916
81.68,4719
82,5555
82.32,4304
82.64,3882
82.96,4229
83.28,4127
83.6,3998
83.92,3794
84.24,3549
84.56,3624
84.88,3869
85.2,3576
85.52,3828
85.84,3910
86.16,4386
86.48,4542
86.8,5168
87.12,4685
87.44,4263
87.76,4324
88.08,4352
88.4,4324
88.72,4501
89.04,5161
89.36,4590
89.68,5066
90,6718
90.32,4896
90.64,3964
90.96,4630
91.28,4304
91.6,4440
91.92,4012
92.24,4379
92.56,4515
92.88,4970
93.2,5120
93.52,5120
93.84,5392
94.16,5025
94.48,4617
94.8,5610
95.12,6174
95.44,4807
95.76,4372
96.08,4195
96.4,4345
96.72,4216
97.04,4583
97.36,3848
97.68,3930
98,4148
98.32,4324
98.64,4175
98.96,4576
99.28,4474
99.6,4610
99.92,4780
100,4569