Folder: spectrumdavit/data/xrd_icdd_PDF (part 9)

File: 00-061-0089 (PD3).csv
7.84,5616
8.115,5614
8.39,5614
8.665,5604
8.94,5532
9.215,5571
9.49,5517
9.765,5523
10.04,5508
10.315,5483
10.59,5505
10.865,5417
11.14,5556
11.415,5342
11.69,5563
11.965,5440
12.24,5285
12.515,5403
12.79,5298
13.065,5453
13.34,5919
13.615,5283
13.89,5147
14.165,5204
14.44,5112
14.715,5129
14.99,5243
15.265,5333
15.54,6287
15.815,5073
16.09,5081
16.365,5119
16.64,5100
16.915,5129
17.19,5020
17.465,5042
17.74,4898
18.015,4951
18.29,5052
18.565,5124
18.84,5059
19.115,5597
19.39,4888
19.665,4874
19.94,4861
20.215,4923
20.49,5126
20.765,4844
21.04,4857
21.315,4607
21.59,4563
21.865,4489
22.14,4779
22.415,4435
22.69,4264
22.965,4589
23.24,7211
23.515,5463
23.79,4234
24.065,3999
24.34,3903
24.615,3863
24.89,3714
25.165,3689
25.44,3814
25.715,4275
25.99,8496
26.265,4318
26.54,4056
26.815,5256
27.09,3603
27.365,3628
27.64,3611
27.915,4380
28.19,5014
28.465,3602
28.74,3444
29.015,3382
29.29,3513
29.565,3468
29.84,3840
30.115,7704
30.39,5628
30.665,3720
30.94,3616
31.215,4248
31.49,3832
31.765,3438
32.04,3431
32.315,3350
32.59,3675
32.865,4622
33.14,12757
33.415,10000
33.69,5144
33.965,9352
34.24,6168
34.515,3927
34.79,3880
35.065,8210
35.34,4061
35.615,3569
35.89,3692
36.165,4291
36.44,3350
36.715,3215
36.99,4063
37.265,11668
37.54,3924
37.815,4085
38.09,3299
38.365,3569
38.64,5897
38.915,4686
39.19,13479
39.465,4943
39.74,3391
40.015,3172
40.29,3254
40.565,5212
40.84,4322
41.115,2985
41.39,2750
41.665,2617
41.94,2639
42.215,2706
42.49,3428
42.765,3785
43.04,2698
43.315,2832
43.59,2598
43.865,2616
44.14,2675
44.415,2515
44.69,2437
44.965,2427
45.24,2418
45.515,2395
45.79,2330
46.065,2283
46.34,2423
46.615,2527
46.89,2783
47.165,2440
47.44,2473
47.715,2432
47.99,2651
48.265,5089
48.54,2702
48.815,3069
49.09,2409
49.365,2283
49.64,2318
49.915,2475
50.19,2295
50.465,2337
50.74,2244
51.015,2224
51.29,2342
51.565,2176
51.84,2151
52.115,2218
52.39,2368
52.665,2924
52.94,2694
53.215,2730
53.49,4024
53.765,3218
54.04,2735
54.315,2579
54.59,3376
54.865,2743
55.14,2874
55.415,2903
55.69,2961
55.965,3590
56.24,3724
56.515,3181
56.79,2659
57.065,2960
57.34,2576
57.615,4227
57.89,2529
58.165,2298
58.44,2285
58.715,2383
58.99,2488
59.265,2577
59.54,3659
59.815,3541
60.09,2646
60.365,2810
60.64,2711
60.915,2423
61.19,2289
61.465,2204
61.74,2300
62.015,2391
62.29,2577
62.565,2370
62.84,2342
63.115,2195
63.39,2347
63.665,2514
63.94,2851
64.215,2719
64.49,2377
64.765,2573
65.04,3032
65.315,2587
65.59,3442
65.865,2605
66.14,3082
66.415,2413
66.69,2367
66.965,2542
67.24,2382
67.515,2351
67.79,2439
68.065,3119
68.34,2683
68.615,2775
68.89,2736
69.165,2281
69.44,2233
69.715,2336
69.99,2297
70.265,2345
70.54,2424
70.815,2913
71.09,2553
71.365,2317
71.64,2498
71.915,2716
72.19,2399
72.465,2403
72.74,2420
73.015,2963
73.29,2692
73.565,2848
73.84,3087
74.115,2968
74.39,3324
74.665,2795
74.94,2825
75.215,2707
75.49,2566
75.765,2299
76.04,2380
76.315,2473
76.59,2940
76.865,2303
77.14,2311
77.415,2305
77.69,2149
77.965,2157
78.24,2163
78.515,2227
78.79,2176
79.065,2237
79.34,2477
79.615,2333
79.89,2585
80.165,3077
80.44,2655
80.715,2295
80.99,2238
81.265,2312
81.54,2343
81.815,2440
82.09,2351
82.365,2663
82.64,2591
82.915,2493
83.19,2299
83.465,2259
83.74,2207
84.015,2160
84.29,2284
84.565,2282
84.84,2278
85.115,2277
85.39,2275
85.665,2265
85.94,2282
86.215,2259
86.49,2288
86.765,2311
87.04,2492
87.315,2293
87.59,2270
87.865,2408
88.14,2636
88.415,2358
88.69,2394
88.965,2383
89.24,2574
89.515,2696
89.755,2510

File: 00-061-0130 (PD3).csv
5,680
5.4,540
5.8,517
6.2,514
6.6,438
7,461
7.4,382
7.8,393
8.2,371
8.6,281
9,270
9.4,281
9.8,259
10.2,216
10.6,236
11,256
11.4,256
11.8,202
12.2,197
12.6,214
13,211
13.4,312
13.8,169
14.2,216
14.6,185
15,191
15.4,149
15.8,149
16.2,180
16.6,180
17,143
17.4,157
17.8,174
18.2,169
18.6,191
19,152
19.4,214
19.8,129
20.2,157
20.6,146
21,267
21.4,180
21.8,180
22.2,1043
22.6,191
23,192
23.4,984
23.8,624
24.2,202
24.6,832
25,753
25.4,247
25.8,216
26.2,202
26.6,236
27,466
27.4,287
27.8,278
28.2,259
28.6,476
29,249
29.4,300
29.8,680
30.2,545
30.6,8028
31,1034
31.4,1624
31.8,13409
32.2,972
32.6,623
33,1384
33.4,5887
33.8,635
34.2,905
34.6,3560
35,1742
35.4,559
35.8,4119
36.2,427
36.6,506
37,1146
37.4,747
37.8,665
38.2,1843
38.6,433
39,697
39.4,837
39.8,1180
40.2,584
40.6,309
41,292
41.4,264
41.8,624
42.2,1085
42.6,663
43,326
43.4,469
43.8,922
44.2,1012
44.6,348
45,486
45.4,1714
45.8,1270
46.2,469
46.6,697
47,399
47.4,674
47.8,747
48.2,444
48.6,337
49,320
49.4,284
49.8,584
50.2,528
50.6,495
51,2653
51.4,933
51.8,865
52.2,483
52.6,287
53,273
53.4,933
53.8,377
54.2,354
54.6,753
55,1349
55.4,910
55.8,444
56.2,377
56.6,374
57,441
57.4,384
57.8,456
58.2,394
58.6,601
59,568
59.4,635
59.8,523
60.2,517
60.6,691
61,427
61.4,874
61.8,2602
62.2,1737
62.6,686
63,742
63.4,1523
63.8,1978
64.2,511
64.6,469
65,422
65.4,840
65.8,674
66.2,1399
66.6,1236
67,652
67.4,365
67.8,601
68.2,371
68.6,337
69,450
69.4,843
69.8,663
70.2,562
70.6,438
71,556
71.4,466
71.8,447
72.2,565
72.6,506
73,542
73.4,523
73.8,646
74.2,646
74.6,455
75,495
75.4,641
75.8,1276
76.2,568
76.6,500
77,312
77.4,343
77.8,334
78.2,641
78.6,320
79,436
79.4,503
79.8,441
80.2,483
80.6,393
81,303
81.4,399
81.8,303
82.2,318
82.6,348
83,371
83.4,545
83.8,540
84.2,545
84.6,562
85,433
85.4,388
85.8,483
86.2,424
86.6,399
87,377
87.4,483
87.8,483
88.2,489
88.6,601
89,674
89.4,686
89.8,413
90.2,416
90.6,584
91,545
91.4,489
91.8,433
92.2,444
92.6,399
93,441
93.4,450
93.8,481
94.2,382
94.6,329
95,362
95.4,523
95.8,405
96.2,511
96.6,489
97,489
97.4,388
97.8,320
98.2,340
98.6,326
99,351
99.4,391
99.8,427
100.2,509
100.6,632
101,607
101.4,582
101.8,967
102.2,1340
102.6,984
103,545
103.4,422
103.8,635
104.2,483
104.6,540
105,469
105.4,405
105.8,461
106.2,551
106.6,509
107,489
107.4,410
107.8,354
108.2,365
108.6,388
109,388
109.4,422
109.8,416
110.2,377
110.6,433
111,478
111.4,478
111.8,410
112.2,436
112.6,478
113,481
113.4,416
113.8,422
114.2,481
114.6,478
115,371
115.4,422
115.8,416
116.2,472
116.6,523
117,514
117.4,506
117.8,433
118.2,464
118.6,500
119,452
119.4,430
119.8,500
120.02,450

File: 00-061-0133 (PD3).csv
5,304
5.4,262
5.8,248
6.2,216
6.6,207
7,174
7.4,169
7.8,147
8.2,147
8.6,147
9,129
9.4,124
9.8,124
10.2,117
10.6,101
11,87
11.4,97
11.8,78
12.2,71
12.6,60
13,69
13.4,69
13.8,60
14.2,83
14.6,53
15,58
15.4,62
15.8,55
16.2,64
16.6,60
17,37
17.4,41
17.8,60
18.2,53
18.6,44
19,58
19.4,46
19.8,51
20.2,41
20.6,39
21,41
21.4,51
21.8,267
22.2,60
22.6,51
23,55
23.4,62
23.8,58
24.2,51
24.6,60
25,51
25.4,55
25.8,69
26.2,66
26.6,78
27,67
27.4,65
27.8,69
28.2,87
28.6,92
29,80
29.4,85
29.8,119
30.2,157
30.6,221
31,5525
31.4,736
31.8,210
32.2,133
32.6,160
33,304
33.4,2105
33.8,853
34.2,283
34.6,165
35,124
35.4,83
35.8,83
36.2,74
36.6,103
37,85
37.4,106
37.8,175
38.2,2203
38.6,202
39,133
39.4,106
39.8,169
40.2,393
40.6,297
41,110
41.4,85
41.8,101
42.2,124
42.6,113
43,116
43.4,109
43.8,136
44.2,345
44.6,938
45,94
45.4,120
45.8,92
46.2,384
46.6,159
47,118
47.4,118
47.8,102
48.2,119
48.6,126
49,128
49.4,115
49.8,138
50.2,97
50.6,92
51,74
51.4,133
51.8,662
52.2,124
52.6,137
53,118
53.4,121
53.8,122
54.2,124
54.6,109
55,136
55.4,110
55.8,131
56.2,140
56.6,527
57,736
57.4,176
57.8,110
58.2,90
58.6,83
59,83
59.4,129
59.8,580
60.2,421
60.6,154
61,150
61.4,1339
61.8,251
62.2,135
62.6,98
63,107
63.4,130
63.8,138
64.2,152
64.6,653
65,138
65.4,117
65.8,230
66.2,304
66.6,110
67,124
67.4,117
67.8,94
68.2,108
68.6,106
69,175
69.4,113
69.8,120
70.2,288
70.6,223
71,106
71.4,97
71.8,109
72.2,99
72.6,97
73,101
73.4,357
73.8,152
74.2,147
74.6,520
75,292
75.4,124
75.8,97
76.2,87
76.6,81
77,103
77.4,306
77.8,163
78.2,81
78.6,152
79,260
79.4,124
79.8,92
80.2,69
80.6,71
81,60
81.4,81
81.8,78
82.2,60
82.6,85
83,253
83.4,115
83.8,81
84.2,83
84.6,115
85,92
85.4,133
85.8,276
86.2,106
86.6,110
87,366
87.4,193
87.8,83
88.2,64
88.6,55
89,71
89.4,74
89.8,133
90.2,58
90.6,101
91,214
91.4,175
91.8,97
92.2,90
92.6,87
93,92
93.4,101
93.8,120
94.2,110
94.6,110
95,345
95.4,465
95.8,154
96.2,115
96.6,101
97,108
97.4,106
97.8,166
98.2,212
98.6,143
99,124
99.4,127
99.8,106
100.2,87
100.6,78
101,110
101.4,101
101.8,235
102.2,230
102.6,133
103,133
103.4,207
103.8,133
104.2,122
104.6,87
105,90
105.4,97
105.8,92
106.2,90
106.6,87
107,110
107.4,193
107.8,294
108.2,212
108.6,133
109,92
109.4,110
109.8,101
110.2,115
110.6,106
111,156
111.4,133
111.8,97
112.2,115
112.6,113
113,87
113.4,115
113.8,115
114.2,90
114.6,152
115,156
115.4,168
115.8,124
116.2,124
116.6,101
117,115
117.4,110
117.8,97
118.2,74
118.6,92
119,92
119.4,120
119.8,140
120.02,74

File: 00-061-0389 (PD3).csv
10.02,335
10.4,295
10.78,271
11.16,270
11.54,255
11.92,250
12.3,264
12.68,229
13.06,344
13.44,208
13.82,227
14.2,244
14.58,196
14.96,153
15.34,172
15.72,185
16.1,173
16.48,167
16.86,156
17.24,156
17.62,155
18,150
18.38,138
18.76,131
19.14,121
19.52,137
19.9,112
20.28,95
20.66,110
21.04,108
21.42,97
21.8,162
22.18,123
22.56,98
22.94,107
23.32,98
23.7,84
24.08,116
24.46,88
24.84,77
25.22,78
25.6,89
25.98,89
26.36,316
26.74,113
27.12,132
27.5,307
27.88,91
28.26,88
28.64,92
29.02,114
29.4,82
29.78,159
30.16,127
30.54,153
30.92,3836
31.3,755
31.68,1731
32.06,5196
32.44,250
32.82,97
33.2,104
33.58,221
33.96,188
34.34,63
34.72,72
35.1,124
35.48,129
35.86,77
36.24,66
36.62,174
37,4916
37.38,306
37.76,93
38.14,104
38.52,47
38.9,66
39.28,56
39.66,64
40.04,120
40.42,104
40.8,74
41.18,122
41.56,77
41.94,69
42.32,64
42.7,109
43.08,827
43.46,148
43.84,136
44.22,816
44.6,1683
44.98,221
45.36,92
45.74,114
46.12,787
46.5,136
46.88,143
47.26,399
47.64,97
48.02,54
48.4,56
48.78,71
49.16,218
49.54,218
49.92,69
50.3,89
50.68,65
51.06,69
51.44,217
51.82,241
52.2,110
52.58,169
52.96,168
53.34,91
53.72,67
54.1,83
54.48,172
54.86,151
55.24,164
55.62,1142
56,1566
56.38,141
56.76,160
57.14,142
57.52,1158
57.9,497
58.28,97
58.66,61
59.04,69
59.42,108
59.8,49
60.18,64
60.56,67
60.94,55
61.32,98
61.7,115
62.08,229
62.46,99
62.84,61
63.22,74
63.6,367
63.98,128
64.36,151
64.74,1164
65.12,164
65.5,71
65.88,69
66.26,50
66.64,159
67.02,354
67.4,122
67.78,69
68.16,64
68.54,274
68.92,107
69.3,75
69.68,94
70.06,99
70.44,49
70.82,69
71.2,104
71.58,85
71.96,58
72.34,53
72.72,132
73.1,219
73.48,424
73.86,472
74.24,381
74.62,68
75,185
75.38,86
75.76,47
76.14,71
76.52,67
76.9,424
77.28,243
77.66,91
78.04,145
78.42,179
78.8,123
79.18,135
79.56,367
79.94,176
80.32,81
80.7,69
81.08,100
81.46,71
81.84,47
82.22,45
82.6,51
82.98,127
83.36,95
83.74,119
84.12,189
84.5,62
84.88,65
85.26,57
85.64,99
86.02,100
86.4,153
86.78,246
87.16,208
87.54,141
87.92,65
88.3,83
88.68,57
89.06,89
89.44,89
89.82,118
90.2,125
90.58,656
90.96,413
91.34,98
91.72,121
92.1,532
92.48,446
92.86,119
93.24,73
93.62,83
94,86
94.38,105
94.76,214
95.14,170
95.52,129
95.9,224
96.28,182
96.66,110
97.04,77
97.42,129
97.8,113
98.18,164
98.56,246
98.94,120
99.32,51
99.7,55
100.08,46
100.46,52
100.84,49
101.22,52
101.6,59
101.98,114
102.36,104
102.74,82
103.12,164
103.5,148
103.88,85
104.26,95
104.64,127
105.02,84
105.4,62
105.78,71
106.16,66
106.54,102
106.92,173
107.3,429
107.68,318
108.06,140
108.44,82
108.82,63
109.2,56
109.58,51
109.96,55
110.34,114
110.72,106
111.1,87
111.48,88
111.86,150
112.24,153
112.62,164
113,164
113.38,109
113.76,57
114.14,75
114.52,100
114.9,111
115.28,167
115.66,355
116.04,287
116.42,141
116.8,90
117.18,71
117.56,93
117.94,137
118.32,107
118.7,65
119.08,78
119.46,73
119.84,97
120,93

File: 00-062-0119 (PD3).csv
7,8422
7.35,8336
7.7,8349
8.05,8348
8.4,8325
8.75,8289
9.1,8089
9.45,8081
9.8,8010
10.15,8075
10.5,7860
10.85,8047
11.2,7810
11.55,7767
11.9,7563
12.25,7561
12.6,7534
12.95,7491
13.3,7449
13.65,7386
14,7369
14.35,7458
14.7,7476
15.05,7549
15.4,7255
15.75,7337
16.1,7217
16.45,7227
16.8,7087
17.15,7087
17.5,6966
17.85,6966
18.2,7138
18.55,7025
18.9,6864
19.25,6986
19.6,6980
19.95,6869
20.3,6901
20.65,6879
21,7043
21.35,6734
21.7,6697
22.05,6790
22.4,6841
22.75,6857
23.1,6612
23.45,6691
23.8,6768
24.15,6525
24.5,6634
24.85,6488
25.2,6335
25.55,6377
25.9,6561
26.25,19849
26.6,6651
26.95,6415
27.3,6180
27.65,6223
28,6514
28.35,6132
28.7,6202
29.05,7686
29.4,6534
29.75,6262
30.1,6032
30.45,6591
30.8,7108
31.15,10549
31.5,6134
31.85,6785
32.2,6545
32.55,13946
32.9,11682
33.25,7012
33.6,6196
33.95,5953
34.3,5943
34.65,5845
35,5797
35.35,5835
35.7,5710
36.05,5847
36.4,5948
36.75,12455
37.1,6060
37.45,5770
37.8,5766
38.15,5666
38.5,5778
38.85,5601
39.2,5743
39.55,5717
39.9,5804
40.25,5600
40.6,5604
40.95,5792
41.3,5576
41.65,5615
42,5599
42.35,5584
42.7,5624
43.05,5652
43.4,5844
43.75,5645
44.1,5811
44.45,14789
44.8,6343
45.15,5855
45.5,5576
45.85,5661
46.2,5654
46.55,5827
46.9,5570
47.25,5629
47.6,5456
47.95,5362
48.3,5308
48.65,5522
49,5439
49.35,6128
49.7,6124
50.05,5890
50.4,5607
50.75,11593
51.1,5700
51.45,5330
51.8,5423
52.15,5664
52.5,6772
52.85,5373
53.2,5245
53.55,5194
53.9,5468
54.25,5370
54.6,5294
54.95,5247
55.3,5382
55.65,5220
56,5605
56.35,13606
56.7,5557
57.05,5449
57.4,5157
57.75,5115
58.1,5126
58.45,5202
58.8,5093
59.15,5115
59.5,5847
59.85,5114
60.2,5371
60.55,5142
60.9,5191
61.25,5156
61.6,4916
61.95,5147
62.3,5021
62.65,4988
63,5022
63.35,4946
63.7,4946
64.05,4908
64.4,5043
64.75,7362
65.1,4927
65.45,4925
65.8,4835
66.15,4835
66.5,4785
66.85,4875
67.2,4903
67.55,4899
67.9,4760
68.25,4881
68.6,5663
68.95,5928
69.3,4957
69.65,4763
70,4935
70.35,4981
70.7,4724
71.05,5042
71.4,4749
71.75,4859
72.1,4597
72.45,4906
72.8,4669
73.15,4706
73.5,5399
73.85,4858
74.2,4944
74.55,5889
74.9,4788
75.25,4584
75.6,4667
75.95,4578
76.3,4617
76.65,4771
77,4985
77.35,4876
77.7,4615
78.05,4763
78.4,4558
78.75,4428
79.1,4319
79.45,4283
79.8,4434
80.15,5098
80.5,4504
80.85,4499
81.2,4473
81.55,4399
81.9,4372
82.25,4276
82.6,4306
82.95,4345
83.3,4340
83.65,4309
84,4522
84.35,4351
84.7,4312
85.05,4416
85.4,4356
85.75,4550
86.1,4289
86.45,4676
86.8,4589
87.15,4431
87.5,4252
87.85,4551
88.2,4208
88.55,4115
88.9,4105
89.25,3979
89.6,4132
89.95,4052
90.3,4017
90.65,4132
91,4724
91.35,4303
91.7,4016
92.05,3938
92.4,4023
92.75,3959
93.1,3882
93.45,3965
93.8,4230
94.15,3967
94.5,4198
94.85,4050
95.2,3813
95.55,3724
95.9,3869
96.25,3831
96.6,3716
96.95,3747
97.3,3788
97.65,3797
98,3781
98.35,4092
98.7,3703
99.05,3796
99.4,3642
99.75,3582
100.1,3560
100.45,3788
100.8,3468
101.15,3511
101.5,3411
101.85,3532
102.2,3667
102.55,3602
102.9,3320
103.25,3444
103.6,3568
103.95,3307
104.3,3448
104.65,3405
105,3384
105.35,3278
105.7,3298
106.05,3235
106.4,3237
106.75,3131
107.1,3097
107.45,3111
107.8,3522
108.15,3037
108.5,2897
108.85,2758
109.2,2781
109.55,2789
109.9,2620
109.99,2746

File: 00-062-0134 (PD3).csv
5.023,2088
5.342,2197
5.661,2268
5.98,2309
6.299,2257
6.618,2265
6.937,2215
7.256,2221
7.575,2218
7.894,2262
8.213,2284
8.532,2352
8.851,2347
9.17,2375
9.489,2341
9.808,2258
10.127,2226
10.446,2258
10.765,2331
11.084,2270
11.403,2228
11.722,2233
12.041,2187
12.36,2279
12.679,2299
12.998,2464
13.317,2504
13.636,2666
13.955,2541
14.274,2636
14.593,2551
14.912,2707
15.231,2925
15.55,2930
15.869,2975
16.188,2971
16.507,2932
16.826,2932
17.145,2880
17.464,2965
17.783,3019
18.102,3097
18.421,3137
18.74,3195
19.059,3160
19.378,3106
19.697,3097
20.016,3110
20.335,3272
20.654,3234
20.973,3276
21.292,3324
21.611,3242
21.93,3309
22.249,3273
22.568,3436
22.887,5647
23.206,3333
23.525,3363
23.844,3452
24.163,3554
24.482,3497
24.801,3464
25.12,3462
25.439,3450
25.758,3523
26.077,3570
26.396,3567
26.715,3648
27.034,3592
27.353,3580
27.672,3668
27.991,3631
28.31,3715
28.629,3737
28.948,6171
29.267,4223
29.586,3778
29.905,3816
30.224,3837
30.543,3844
30.862,3812
31.181,4696
31.5,4696
31.819,4049
32.138,4107
32.457,4042
32.776,4064
33.095,4013
33.414,4045
33.733,9738
34.052,4064
34.371,3989
34.69,3917
35.009,3983
35.328,4142
35.647,15697
35.966,4405
36.285,4214
36.604,4393
36.923,4832
37.242,74108
37.561,5423
37.88,4476
38.199,4187
38.518,4267
38.837,4187
39.156,4169
39.475,4265
39.794,4199
40.113,4105
40.432,4226
40.751,4260
41.07,4273
41.389,4247
41.708,4222
42.027,4272
42.346,4459
42.665,4240
42.984,4262
43.303,4627
43.622,4320
43.941,4332
44.26,4320
44.579,4282
44.898,4587
45.217,4788
45.536,4335
45.855,4338
46.174,4374
46.493,5732
46.812,6975
47.131,4631
47.45,4547
47.769,5074
48.088,6007
48.407,4469
48.726,4480
49.045,4360
49.364,4257
49.683,4152
50.002,4356
50.321,4398
50.64,4426
50.959,4985
51.278,4486
51.597,6136
51.916,4540
52.235,4538
52.554,4568
52.873,4419
53.192,4586
53.511,4593
53.83,4592
54.149,10927
54.468,4730
54.787,4550
55.106,4511
55.425,4742
55.744,4752
56.063,4874
56.382,4807
56.701,4581
57.02,4481
57.339,4374
57.658,4542
57.977,4399
58.296,4650
58.615,4742
58.934,4897
59.253,4785
59.572,6070
59.891,8624
60.21,13106
60.529,5459
60.848,5047
61.167,4933
61.486,4847
61.805,4837
62.124,4862
62.443,4938
62.762,4928
63.081,5188
63.4,4933
63.719,4896
64.038,4870
64.357,4925
64.676,4936
64.995,5065
65.314,11180
65.633,5160
65.952,4958
66.271,5097
66.59,5138
66.909,5236
67.228,5024
67.547,5207
67.866,7099
68.185,5280
68.504,5178
68.823,5033
69.142,5260
69.461,11528
69.78,5583
70.099,5201
70.418,5177
70.737,5405
71.056,5247
71.375,5089
71.694,5239
72.013,9704
72.332,5503
72.651,5470
72.97,10293
73.289,6175
73.608,5380
73.927,5168
74.246,5209
74.565,5335
74.884,5242
75.203,5405
75.522,5763
75.841,5413
76.16,5291
76.479,5346
76.798,5314
77.117,5287
77.436,5365
77.755,5264
78.074,5290
78.393,6469
78.712,5550
79.031,5613
79.35,5931
79.669,5933
79.988,5489
80.307,5267
80.626,5230
80.945,5329
81.264,5304
81.583,5234
81.902,5394
82.221,5425
82.54,5614
82.859,6856
83.178,7201
83.497,5518
83.816,5499
84.135,5416
84.454,5304
84.773,5294
85.092,5518
85.411,6790
85.73,5423
86.049,5535
86.368,5628
86.687,7962
87.006,6037
87.325,5632
87.644,5572
87.963,5678
88.282,5495
88.601,5457
88.92,5512
89.239,5409
89.558,5592
89.877,6394
90.196,5976
90.515,5421
90.834,5428
91.153,5458
91.472,5742
91.791,5702
92.11,5544
92.429,5408
92.748,5979
93.067,5544
93.386,5499
93.705,5458
94.024,5557
94.343,5808
94.662,8242
94.981,11125
95.3,5969
95.619,5466
95.938,5449
96.257,5327
96.576,5401
96.895,5466
97.214,5820
97.533,6087
97.852,6123
98.171,5629
98.49,5564
98.809,5414
99.128,5615
99.447,5564
99.766,5542
99.998,5611

File: 00-062-0163 (PD3).csv
10.0188,2875
10.2988,2816
10.5788,2767
10.8588,2721
11.1388,2662
11.4188,2608
11.6988,2689
11.9788,2459
12.2588,2400
12.5388,2439
12.8188,2468
13.0988,2629
13.3788,2427
13.6588,2410
13.9388,2360
14.2188,2359
14.4988,2507
14.7788,2696
15.0588,2572
15.3388,2531
15.6188,2488
15.8988,2504
16.1788,2456
16.4588,2541
16.7388,2532
17.0188,2770
17.2988,2946
17.5788,2730
17.8588,2629
18.1388,2820
18.4188,2703
18.6988,2691
18.9788,2814
19.2588,2898
19.5388,2856
19.8188,3715
20.0988,4765
20.3788,2955
20.6588,3051
20.9388,2944
21.2188,3024
21.4988,2929
21.7788,3271
22.0588,3605
22.3388,6051
22.6188,3440
22.8988,12159
23.1788,3442
23.4588,2813
23.7388,2729
24.0188,2765
24.2988,2659
24.5788,2585
24.8588,2604
25.1388,2524
25.4188,2680
25.6988,3196
25.9788,9683
26.2588,40666
26.5388,5201
26.8188,3052
27.0988,2312
27.3788,2325
27.6588,4621
27.9388,3345
28.2188,2671
28.4988,12323
28.7788,6961
29.0588,2451
29.3388,2399
29.6188,4626
29.8988,7249
30.1788,31734
30.4588,3376
30.7388,2028
31.0188,1798
31.2988,1790
31.5788,1785
31.8588,1826
32.1388,4813
32.4188,3806
32.6988,1829
32.9788,1724
33.2588,2105
33.5388,3372
33.8188,3176
34.0988,1716
34.3788,2244
34.6588,9456
34.9388,8014
35.2188,4042
35.4988,1844
35.7788,2258
36.0588,2817
36.3388,2897
36.6188,1447
36.8988,1251
37.1788,1269
37.4588,1991
37.7388,3880
38.0188,1618
38.2988,1284
38.5788,1623
38.8588,6241
39.1388,4334
39.4188,6527
39.6988,12224
39.9788,2049
40.2588,1181
40.5388,1403
40.8188,1113
41.0988,1218
41.3788,1200
41.6588,2615
41.9388,1581
42.2188,2367
42.4988,1276
42.7788,1154
43.0588,1545
43.3388,1945
43.6188,2404
43.8988,1574
44.1788,2457
44.4588,1237
44.7388,1194
45.0188,1300
45.2988,3313
45.5788,3307
45.8588,3313
46.1388,2475
46.4188,2192
46.6988,2706
46.9788,2354
47.2588,1434
47.5388,2821
47.8188,1315
48.0988,1023
48.3788,970
48.6588,1072
48.9388,2174
49.2188,2415
49.4988,3391
49.7788,6292
50.0588,2170
50.3388,1624
50.6188,1699
50.8988,1389
51.1788,2004
51.4588,1361
51.7388,1368
52.0188,1257
52.2988,1247
52.5788,1284
52.8588,2586
53.1388,3895
53.4188,3868
53.6988,2469
53.9788,3438
54.2588,2262
54.5388,1704
54.8188,1196
55.0988,2169
55.3788,1273
55.6588,987
55.9388,1067
56.2188,1141
56.4988,1225
56.7788,2424
57.0588,2331
57.3388,1350
57.6188,1799
57.8988,1142
58.1788,988
58.4588,1067
58.7388,1408
59.0188,2608
59.2988,2287
59.5788,4201
59.8588,2833
60.1388,2787
60.4188,1823
60.6988,1470
60.9788,1735
61.2588,1918
61.5388,1867
61.8188,2212
62.0988,1664
62.3788,1754
62.6588,1974
62.9388,2192
63.2188,1494
63.4988,1498
63.7788,1433
64.0588,1500
64.3388,1016
64.6188,1002
64.8988,1021
65.1788,1084
65.4588,1592
65.7388,1670
66.0188,1174
66.2988,1025
66.5788,1025
66.8588,976
67.1388,897
67.4188,970
67.6988,1007
67.9788,1147
68.2588,2069
68.5388,1334
68.8188,1635
69.0988,3813
69.3788,2074
69.6588,1942
69.9388,1674
70.2188,1597
70.4988,1768
70.7788,2001
71.0588,1940
71.3388,2460
71.6188,1362
71.8988,1051
72.1788,1117
72.4588,1025
72.7388,888
73.0188,1028
73.2988,1278
73.5788,1033
73.8588,823
74.1388,921
74.4188,1111
74.6988,962
74.9788,860
75.2588,840
75.5388,876
75.8188,1105
76.0988,1372
76.3788,1190
76.6588,1097
76.9388,1596
77.2188,1493
77.4988,946
77.7788,850
78.0588,764
78.3388,719
78.6188,875
78.8988,1058
79.1788,1308
79.4588,1066
79.7388,861
80.0188,841
80.2988,846
80.5788,755
80.8588,855
81.1388,1146
81.4188,905
81.6988,664
81.9788,677
82.2588,852
82.5388,916
82.8188,991
83.0988,1214
83.3788,1973
83.6588,1676
83.9388,1283
84.2188,1209
84.4988,1121
84.7788,958
85.0588,827
85.3388,761
85.6188,813
85.8988,711
86.1788,829
86.4588,1131
86.7388,1162
87.0188,909
87.2988,827
87.5788,778
87.8588,913
88.1388,805
88.4188,822
88.6988,775
88.9788,696
89.2588,709
89.5388,670
89.8188,867
90.0388,951

File: 00-062-0297 (PD3).csv
3,517
3.46,418
3.92,417
4.38,364
4.84,295
5.3,263
5.76,250
6.22,236
6.68,201
7.14,176
7.6,153
8.06,170
8.52,142
8.98,127
9.44,120
9.9,133
10.36,124
10.82,102
11.28,79
11.74,103
12.2,83
12.66,91
13.12,73
13.58,109
14.04,95
14.5,83
14.96,80
15.42,76
15.88,73
16.34,70
16.8,64
17.26,70
17.72,62
18.18,75
18.64,349
19.1,70
19.56,67
20.02,40
20.48,121
20.94,53
21.4,79
21.86,96
22.32,63
22.78,62
23.24,65
23.7,75
24.16,832
24.62,52
25.08,58
25.54,68
26,69
26.46,62
26.92,57
27.38,52
27.84,112
28.3,62
28.76,62
29.22,355
29.68,155
30.14,204
30.6,17036
31.06,558
31.52,262
31.98,153
32.44,475
32.9,89
33.36,50
33.82,122
34.28,133
34.74,54
35.2,52
35.66,43
36.12,423
36.58,46
37.04,65
37.5,53
37.96,404
38.42,67
38.88,50
39.34,248
39.8,59
40.26,54
40.72,65
41.18,87
41.64,62
42.1,87
42.56,66
43.02,88
43.48,145
43.94,12501
44.4,299
44.86,88
45.32,764
45.78,88
46.24,68
46.7,56
47.16,69
47.62,50
48.08,146
48.54,339
49,74
49.46,374
49.92,68
50.38,72
50.84,172
51.3,61
51.76,62
52.22,85
52.68,83
53.14,87
53.6,99
54.06,186
54.52,5846
54.98,667
55.44,197
55.9,128
56.36,91
56.82,81
57.28,83
57.74,99
58.2,165
58.66,89
59.12,82
59.58,63
60.04,74
60.5,223
60.96,78
61.42,58
61.88,63
62.34,55
62.8,59
63.26,91
63.72,1141
64.18,1741
64.64,302
65.1,68
65.56,62
66.02,88
66.48,70
66.94,68
67.4,155
67.86,76
68.32,124
68.78,79
69.24,183
69.7,75
70.16,55
70.62,64
71.08,55
71.54,76
72,100
72.46,2314
72.92,610
73.38,176
73.84,174
74.3,76
74.76,72
75.22,64
75.68,71
76.14,69
76.6,75
77.06,55
77.52,251
77.98,171
78.44,53
78.9,61
79.36,65
79.82,54
80.28,115
80.74,364
81.2,444
81.66,166
82.12,87
82.58,56
83.04,56
83.5,58
83.96,68
84.42,95
84.88,94
85.34,255
85.8,98
86.26,69
86.72,110
87.18,90
87.64,63
88.1,106
88.56,1789
89.02,1616
89.48,837
89.94,140
90.4,78
90.86,84
91.32,69
91.78,103
92.24,80
92.7,55
93.16,86
93.62,194
94.08,87
94.54,55
95,52
95.46,54
95.92,70
96.38,66
96.84,403
97.3,135
97.76,192
98.22,96
98.68,60
99.14,57
99.6,49
100.06,65
100.52,160
100.98,127
101.44,124
101.9,166
102.36,82
102.82,58
103.28,56
103.74,82
104.2,128
104.66,546
105.12,1293
105.58,886
106.04,162
106.5,92
106.96,81
107.42,72
107.88,89
108.34,107
108.8,101
109.26,92
109.72,212
110.18,154
110.64,83
111.1,82
111.56,66
112.02,81
112.48,94
112.94,252
113.4,820
113.86,763
114.32,302
114.78,89
115.24,77
115.7,81
116.16,70
116.62,73
117.08,128
117.54,143
118,113
118.46,118
118.92,123
119.38,99
119.84,90
120.3,83
120.76,83
121.22,81
121.68,263
122.14,321
122.6,393
123.06,351
123.52,439
123.98,252
124.44,140
124.9,109
125.36,108
125.82,101
126.28,84
126.74,92
127.2,95
127.66,89
128.12,138
128.58,138
129.04,115
129.5,85
129.96,83
130.42,85
130.88,73
131.34,93
131.8,292
132.26,360
132.72,357
133.18,383
133.64,575
134.1,250
134.56,131
135.02,112
135.48,91
135.94,116
136.4,111
136.86,143
137.32,144
137.78,144
138.24,211
138.7,192
139.16,234
139.62,218
139.98,186