Folder: spectrumdavit/data/xrd_icdd_PDF (part 8)

File: 00-060-0223 (PD3).csv
4.77366,4008.86
5.07366,3932.92
5.37366,3897.47
5.67366,3864.81
5.97366,3855.46
6.27366,3845.42
6.57366,3819
6.87366,3827.51
7.17366,3815
7.47366,3820.82
7.77366,3802.25
8.07366,3800.8
8.37366,3781.61
8.67366,3790.3
8.97366,3780.66
9.27366,3774.67
9.57366,3765.22
9.87366,3758.06
10.17366,3756.89
10.47366,3767.97
10.77366,3747.47
11.07366,3757.8
11.37366,3748.12
11.67366,3766.29
11.97366,3744.26
12.27366,3737.58
12.57366,3743.97
12.87366,3733.82
13.17366,3739.9
13.47366,3723.52
13.77366,3739.81
14.07366,3734.15
14.37366,3728.67
14.67366,3732.29
14.97366,3723.89
15.27366,3727.72
15.57366,3711.42
15.87366,3730.02
16.17366,3712.62
16.47366,3716.25
16.77366,3721.14
17.07366,3740.92
17.37366,3963.94
17.67366,3691.19
17.97366,3723.54
18.27366,3722.06
18.57366,3720.14
18.87366,3716.66
19.17366,3717.38
19.47366,3709.01
19.77366,3725.47
20.07366,3725.35
20.37366,3718.25
20.67366,3722.67
20.97366,3722.73
21.27366,3727.24
21.57366,3723.37
21.87366,3729.76
22.17366,3721.88
22.47366,3723.94
22.77366,3721.71
23.07366,3724.94
23.37366,3710.46
23.67366,3721.91
23.97366,3710.9
24.27366,3721.57
24.57366,3890.17
24.87366,5523.78
25.17366,3846.84
25.47366,3693.55
25.77366,3703.68
26.07366,3711.96
26.37366,3900.84
26.67366,6917.8
26.97366,3738.42
27.27366,3692.94
27.57366,3700.11
27.87366,3719.49
28.17366,3720.41
28.47366,3740.15
28.77366,3708.81
29.07366,3713.34
29.37366,3878.96
29.67366,3720.45
29.97366,3728.58
30.27366,3709.68
30.57366,3709.77
30.87366,3722.99
31.17366,3709.45
31.47366,3715.22
31.77366,3716.91
32.07366,3712.86
32.37366,3726.55
32.67366,3732.36
32.97366,3697.57
33.27366,3703.29
33.57366,3707.52
33.87366,3697.35
34.17366,3648.47
34.47366,3706.76
34.77366,3682.04
35.07366,3701.29
35.37366,8303.24
35.67366,3768.5
35.97366,3706.69
36.27366,3785.81
36.57366,7329.48
36.87366,5581.25
37.17366,3842.74
37.47366,3712.11
37.77366,3716.78
38.07366,3715.39
38.37366,3701.15
38.67366,3726.88
38.97366,3729.72
39.27366,3862.31
39.57366,6260.32
39.87366,4909.41
40.17366,3792.63
40.47366,3745.69
40.77366,3701.88
41.07366,3706.81
41.37366,3702.88
41.67366,3723.84
41.97366,3713.8
42.27366,3724.24
42.57366,3891.7
42.87366,10494
43.17366,3817.17
43.47366,3712.02
43.77366,3714.25
44.07366,3701.71
44.37366,3713.52
44.67366,3916.12
44.97366,3761.74
45.27366,3679.7
45.57366,3930.795
45.87366,3756.91
46.17366,3858.04
46.47366,4664.9
46.77366,5178.57
47.07366,3935.67
47.37366,3723.43
47.67366,3738.98
47.97366,5101.02
48.27366,3953.22
48.57366,3792.25
48.87366,3702.28
49.17366,3694.52
49.47366,3697.92
49.77366,3710.28
50.07366,3710.4
50.37366,3705.77
50.67366,3719.18
50.97366,3715.92
51.27366,3689.46
51.57366,4039.61
51.87366,4443.01
52.17366,3697.84
52.47366,4568.97
52.77366,3706.46
53.07366,3731.6
53.37366,3719.76
53.67366,3711.76
53.97366,3725.98
54.27366,4273.18
54.57366,3702.66
54.87366,4082.72
55.17366,3815.57
55.47366,3720.35
55.77366,3726.42
56.07366,3711.29
56.37366,3716.16
56.67366,3798.079
56.97366,3740.4
57.27366,3877.86
57.57366,3853.11
57.87366,3883.09
58.17366,4427.45
58.47366,4707.58
58.77366,3750.15
59.07366,3685.74
59.37366,3707.71
59.67366,3872.59
59.97366,3823.31
60.27366,3772.96
60.57366,3748.73
60.87366,3829.78
61.17366,4153.79
61.47366,3827.65
61.77366,3714.8
62.07366,3718.65
62.37366,3710.36
62.67366,3750.41
62.97366,3679.84
63.27366,3709.41
63.57366,3701.68
63.87366,4391.94
64.17366,4990.26
64.47366,3698.42
64.77366,3714.37
65.07366,3717.96
65.37366,3703.47
65.67366,3713.24
65.97366,3710.11
66.27366,4563.12
66.57366,4151.31
66.87366,3873.29
67.17366,3722.75
67.47366,3704.38
67.77366,3704.66
68.07366,3694.74
68.37366,3722.17
68.67366,3706.66
68.97366,3721.32
69.27366,3702.45
69.57366,3772.08
69.87366,4132.91
70.17366,5649.94
70.47366,4018.39
70.77366,4248.71
71.07366,3626.59
71.37366,3785.38
71.67366,3708.43
71.97366,3703.21
72.27366,3655.26
72.57366,3605.27
72.87366,3715.82
73.17366,3708.15
73.47366,3703.61
73.77366,3715.65
74.07366,3832.5
74.37366,3666.37
74.67366,3815.17
74.97366,4032.44
75.27366,4321.45
75.57366,4644.04
75.87366,3814.96
76.17366,3710.83
76.47366,3701.8
76.77366,3755.35
77.07366,3661.37
77.37366,3707.15
77.67366,3711.27
77.97366,3959.57
78.27366,3722.88
78.57366,3686.6
78.87366,3695.8
79.17366,3714.55
79.47366,3708.91
79.77366,3709.85
80.07366,3712.21
80.37366,3726.62
80.67366,3716.81
80.97366,3706
81.27366,3703.57
81.57366,3697.29
81.87366,4026.01
82.17366,4333.2
82.47366,3722.17
82.77366,3699.22
83.07366,3725.19
83.37366,3705.89
83.67366,3703.71
83.97366,3706.86
84.27366,3708.57
84.57366,3697.18
84.87366,3704.17
85.17366,3712.33
85.47366,4455.72
85.77366,4142.07
86.07366,4934.76
86.37366,4053.67
86.67366,3784.38
86.97366,3750.42
87.27366,3738.88
87.57366,3706.83
87.87366,3693.72
88.17366,3712.16
88.47366,3843.99
88.77366,3932.6
89.07366,3691.94
89.37366,3708.08
89.67366,3707.05
89.97366,4143.53
90.27366,3928.73
90.57366,3698.25
90.87366,3712.59
91.17366,3714.61
91.47366,3719.92
91.77366,3711.32
92.07366,3720.87
92.31366,3659.82

File: 00-060-0507 (PD3).csv
5.011,18672
5.368,18081
5.725,17200
6.082,16064
6.439,15872
6.796,15532
7.153,14562
7.51,14054
7.867,13974
8.224,13469
8.581,13258
8.938,13609
9.295,19453
9.652,117583
10.009,14841
10.366,12724
10.723,11988
11.08,11543
11.437,11085
11.794,10836
12.151,10572
12.508,10348
12.865,10235
13.222,9904
13.579,9854
13.936,9716
14.293,9559
14.65,9340
15.007,9289
15.364,8978
15.721,9107
16.078,8887
16.435,8872
16.792,8780
17.149,8753
17.506,8867
17.863,8508
18.22,8594
18.577,8739
18.934,11190
19.291,41628
19.648,29634
20.005,10476
20.362,9580
20.719,9189
21.076,8999
21.433,8511
21.79,8395
22.147,8140
22.504,8269
22.861,9622
23.218,23763
23.575,37237
23.932,9296
24.289,8566
24.646,8460
25.003,8365
25.36,8102
25.717,7923
26.074,7817
26.431,8262
26.788,9035
27.145,40079
27.502,15041
27.859,8479
28.216,7850
28.573,7878
28.93,7877
29.287,17707
29.644,8653
30.001,7519
30.358,7283
30.715,7201
31.072,7050
31.429,7174
31.786,7316
32.143,8197
32.5,68006
32.857,46303
33.214,9759
33.571,30279
33.928,22720
34.285,13756
34.642,7920
34.999,7643
35.356,7490
35.713,7275
36.07,7069
36.427,6888
36.784,7274
37.141,7249
37.498,7249
37.855,7922
38.212,29464
38.569,14700
38.926,7940
39.283,10053
39.64,55359
39.997,7852
40.354,7076
40.711,6879
41.068,6714
41.425,6603
41.782,7238
42.139,6519
42.496,6576
42.853,6502
43.21,6550
43.567,6442
43.924,6538
44.281,7339
44.638,7979
44.995,6406
45.352,6402
45.709,6533
46.066,6381
46.423,7156
46.78,80815
47.137,9303
47.494,6801
47.851,8882
48.208,6772
48.565,6355
48.922,6486
49.279,6614
49.636,7276
49.993,44968
50.35,8268
50.707,21342
51.064,29313
51.421,10589
51.778,8284
52.135,24115
52.492,11672
52.849,21277
53.206,30457
53.563,7639
53.92,6867
54.277,6622
54.634,8227
54.991,13904
55.348,18475
55.705,6971
56.062,7768
56.419,10727
56.776,6890
57.133,6710
57.49,6573
57.847,6514
58.204,7029
58.561,10334
58.918,20136
59.275,27351
59.632,6983
59.989,6631
60.346,6655
60.703,8355
61.06,31379
61.417,7577
61.774,6444
62.131,6623
62.488,6914
62.845,33452
63.202,8403
63.559,6387
63.916,6312
64.273,6484
64.63,6165
64.987,5923
65.344,5867
65.701,5915
66.058,5885
66.415,6074
66.772,6435
67.129,6079
67.486,6073
67.843,7665
68.2,10478
68.557,8030
68.914,10068
69.271,6762
69.628,6803
69.985,6650
70.342,6882
70.699,10829
71.056,20104
71.413,39817
71.77,27832
72.127,13350
72.484,10497
72.841,7571
73.198,7947
73.555,10140
73.912,6597
74.269,6551
74.626,6547
74.983,10278
75.34,7493
75.697,7952
76.054,6532
76.411,7902
76.768,6455
77.125,6236
77.482,12066
77.839,8458
78.196,9840
78.553,10980
78.91,7003
79.267,6151
79.624,6116
79.981,6401
80.338,7305
80.695,7654
81.052,10010
81.409,12364
81.766,12595
82.123,9948
82.48,8819
82.837,6394
83.194,9002
83.551,7082
83.908,6135
84.265,5996
84.622,6543
84.979,7735
85.336,6992
85.693,6193
86.05,6071
86.407,6067
86.764,5996
87.121,5934
87.478,6115
87.835,5916
88.192,5981
88.549,6020
88.906,8782
89.263,8089
89.62,15490
89.977,25560
90.334,13435
90.691,13339
91.048,13292
91.405,10222
91.762,6645
92.119,8658
92.476,7092
92.833,7289
93.19,6549
93.547,6791
93.904,7438
94.261,7969
94.618,6948
94.975,6313
95.332,6249
95.689,6295
96.046,10573
96.403,11505
96.76,8181
97.117,10158
97.474,7467
97.831,6785
98.188,8699
98.545,10840
98.902,9929
99.259,7650
99.616,6512
99.973,6145
100.33,6171
100.687,6188
101.044,6661
101.401,7427
101.758,6803
102.115,6463
102.472,6096
102.829,6221
103.186,6809
103.543,6350
103.9,6140
104.257,5998
104.614,6182
104.971,6958
105.328,7267
105.685,6834
106.042,6508
106.399,6475
106.756,6323
107.113,6741
107.47,7776
107.827,12414
108.184,20164
108.541,17545
108.898,14722
109.255,9547
109.612,9963
109.969,7922
110.003,8040

File: 00-060-0758 (PD3).csv
5.0066,905
5.4616,438
5.9166,341
6.3716,353
6.8266,474
7.2816,398
7.7366,174
8.1916,66
8.6466,59
9.1016,46
9.5566,42
10.0116,33
10.4666,24
10.9216,27
11.3766,27
11.8316,42
12.2866,28
12.7416,39
13.1966,35
13.6516,49
14.1066,86
14.5616,57
15.0166,65
15.4716,110
15.9266,72
16.3816,51
16.8366,50
17.2916,68
17.7466,49
18.2016,71
18.6566,58
19.1116,49
19.5666,47
20.0216,49
20.4766,63
20.9316,51
21.3866,54
21.8416,51
22.2966,54
22.7516,54
23.2066,51
23.6616,55
24.1166,57
24.5716,221
25.0266,58
25.4816,61
25.9366,50
26.3916,102
26.8466,62
27.3016,64
27.7566,63
28.2116,63
28.6666,89
29.1216,1764
29.5766,77
30.0316,84
30.4866,95
30.9416,1534
31.3966,133
31.8516,69
32.3066,208
32.7616,70
33.2166,82
33.6716,85
34.1266,1158
34.5816,60
35.0366,51
35.4916,379
35.9466,87
36.4016,61
36.8566,45
37.3116,58
37.7666,87
38.2216,561
38.6766,121
39.1316,44
39.5866,44
40.0416,71
40.4966,181
40.9516,53
41.4066,63
41.8616,637
42.3166,62
42.7716,54
43.2266,53
43.6816,58
44.1366,33
44.5916,327
45.0466,56
45.5016,65
45.9566,911
46.4116,65
46.8666,94
47.3216,182
47.7766,71
48.2316,80
48.6866,72
49.1416,56
49.5966,93
50.0516,132
50.5066,51
50.9616,60
51.4166,170
51.8716,57
52.3266,230
52.7816,105
53.2366,63
53.6916,73
54.1466,418
54.6016,314
55.0566,195
55.5116,133
55.9666,412
56.4216,52
56.8766,51
57.3316,85
57.7866,91
58.2416,67
58.6966,42
59.1516,65
59.6066,81
60.0616,474
60.5166,389
60.9716,60
61.4266,115
61.8816,57
62.3366,63
62.7916,233
63.2466,72
63.7016,44
64.1566,56
64.6116,72
65.0666,104
65.5216,186
65.9766,301
66.4316,215
66.8866,55
67.3416,113
67.7966,199
68.2516,72
68.7066,63
69.1616,44
69.6166,81
70.0716,63
70.5266,71
70.9816,43
71.4366,125
71.8916,85
72.3466,61
72.8016,42
73.2566,45
73.7116,57
74.1666,50
74.6216,45
75.0766,54
75.5316,53
75.9866,75
76.4416,156
76.8966,92
77.3516,54
77.8066,34
78.2616,72
78.7166,62
79.1716,61
79.6266,52
80.0816,82
80.5366,144
80.9916,78
81.4466,71
81.9016,169
82.3566,63
82.8116,71
83.2666,62
83.7216,47
84.1766,59
84.6316,47
85.0866,58
85.5416,62
85.9966,51
86.4516,99
86.9066,84
87.3616,92
87.8166,75
88.2716,111
88.7266,105
89.1816,73
89.6366,66
90.0916,51
90.5466,74
91.0016,159
91.4566,65
91.9116,81
92.3666,41
92.8216,79
93.2766,64
93.7316,41
94.1866,68
94.6416,43
95.0966,45
95.5516,87
96.0066,137
96.4616,71
96.9166,67
97.3716,50
97.8266,55
98.2816,56
98.7366,82
99.1916,71
99.6466,76
100.1016,73
100.5566,70
101.0116,120
101.4666,81
101.9216,122
102.3766,137
102.8316,85
103.2866,73
103.7416,84
104.1966,48
104.6516,56
105.1066,66
105.5616,56
106.0166,63
106.4716,104
106.9266,80
107.3816,67
107.8366,52
108.2916,49
108.7466,42
109.2016,58
109.6566,41
110.1116,53
110.5666,49
111.0216,61
111.4766,75
111.9316,77
112.3866,58
112.8416,60
113.2966,80
113.7516,76
114.2066,72
114.6616,130
115.1166,112
115.5716,102
116.0266,93
116.4816,72
116.9366,73
117.3916,66
117.8466,72
118.3016,57
118.7566,66
119.2116,59
119.6666,58
120.1216,78
120.5766,50
121.0316,46
121.4866,40
121.9416,45
122.3966,43
122.8516,62
123.3066,92
123.7616,78
124.2166,72
124.6716,65
125.1266,85
125.5816,97
126.0366,70
126.4916,84
126.9466,90
127.4016,83
127.8566,88
128.3116,70
128.7666,73
129.2216,46
129.6766,67
130.1316,73
130.5866,74
131.0416,106
131.4966,101
131.9516,61
132.4066,75
132.8616,109
133.3166,131
133.7716,141
134.2266,98
134.6816,59
135.1366,81
135.5916,80
136.0466,56
136.5016,66
136.9566,69
137.4116,88
137.8666,93
138.3216,106
138.7766,102
139.2316,83
139.6866,93
139.9986,131

File: 00-060-0760 (PD3).csv
5.0066,858
5.4616,455
5.9166,347
6.3716,374
6.8266,501
7.2816,429
7.7366,189
8.1916,104
8.6466,86
9.1016,67
9.5566,66
10.0116,55
10.4666,63
10.9216,60
11.3766,79
11.8316,72
12.2866,69
12.7416,70
13.1966,66
13.6516,82
14.1066,85
14.5616,77
15.0166,87
15.4716,90
15.9266,93
16.3816,108
16.8366,95
17.2916,204
17.7466,89
18.2016,100
18.6566,97
19.1116,73
19.5666,66
20.0216,83
20.4766,86
20.9316,91
21.3866,86
21.8416,83
22.2966,74
22.7516,88
23.2066,101
23.6616,132
24.1166,94
24.5716,111
25.0266,88
25.4816,111
25.9366,103
26.3916,87
26.8466,86
27.3016,105
27.7566,118
28.2116,1132
28.6666,100
29.1216,99
29.5766,113
30.0316,136
30.4866,116
30.9416,1279
31.3966,107
31.8516,105
32.3066,105
32.7616,311
33.2166,550
33.6716,169
34.1266,188
34.5816,101
35.0366,283
35.4916,100
35.9466,80
36.4016,75
36.8566,106
37.3116,122
37.7666,106
38.2216,92
38.6766,119
39.1316,103
39.5866,81
40.0416,80
40.4966,85
40.9516,83
41.4066,100
41.8616,81
42.3166,240
42.7716,100
43.2266,101
43.6816,88
44.1366,98
44.5916,83
45.0466,85
45.5016,92
45.9566,89
46.4116,102
46.8666,106
47.3216,355
47.7766,102
48.2316,100
48.6866,117
49.1416,95
49.5966,95
50.0516,241
50.5066,103
50.9616,110
51.4166,127
51.8716,211
52.3266,112
52.7816,103
53.2366,230
53.6916,165
54.1466,99
54.6016,109
55.0566,89
55.5116,110
55.9666,310
56.4216,190
56.8766,93
57.3316,131
57.7866,99
58.2416,111
58.6966,164
59.1516,95
59.6066,135
60.0616,100
60.5166,90
60.9716,103
61.4266,112
61.8816,110
62.3366,79
62.7916,83
63.2466,102
63.7016,103
64.1566,196
64.6116,112
65.0666,87
65.5216,92
65.9766,125
66.4316,105
66.8866,95
67.3416,119
67.7966,136
68.2516,95
68.7066,114
69.1616,102
69.6166,122
70.0716,123
70.5266,102
70.9816,86
71.4366,96
71.8916,98
72.3466,115
72.8016,101
73.2566,99
73.7116,88
74.1666,94
74.6216,99
75.0766,80
75.5316,91
75.9866,99
76.4416,130
76.8966,99
77.3516,97
77.8066,93
78.2616,90
78.7166,100
79.1716,92
79.6266,97
80.0816,91
80.5366,147
80.9916,161
81.4466,109
81.9016,137
82.3566,102
82.8116,111
83.2666,247
83.7216,123
84.1766,86
84.6316,87
85.0866,90
85.5416,177
85.9966,107
86.4516,90
86.9066,94
87.3616,102
87.8166,104
88.2716,104
88.7266,94
89.1816,88
89.6366,88
90.0916,184
90.5466,96
91.0016,87
91.4566,75
91.9116,104
92.3666,152
92.8216,83
93.2766,102
93.7316,101
94.1866,119
94.6416,124
95.0966,87
95.5516,117
96.0066,93
96.4616,112
96.9166,118
97.3716,125
97.8266,92
98.2816,90
98.7366,97
99.1916,93
99.6466,102
100.1016,112
100.5566,104
101.0116,102
101.4666,103
101.9216,100
102.3766,117
102.8316,106
103.2866,116
103.7416,113
104.1966,97
104.6516,94
105.1066,97
105.5616,102
106.0166,106
106.4716,105
106.9266,97
107.3816,92
107.8366,97
108.2916,94
108.7466,100
109.2016,105
109.6566,115
110.1116,91
110.5666,99
111.0216,110
111.4766,106
111.9316,98
112.3866,90
112.8416,100
113.2966,189
113.7516,116
114.2066,117
114.6616,105
115.1166,119
115.5716,149
116.0266,121
116.4816,86
116.9366,107
117.3916,96
117.8466,96
118.3016,98
118.7566,118
119.2116,110
119.6666,114
120.1216,103
120.5766,122
121.0316,120
121.4866,118
121.9416,122
122.3966,125
122.8516,133
123.3066,131
123.7616,133
124.2166,87
124.6716,122
125.1266,110
125.5816,114
126.0366,112
126.4916,139
126.9466,116
127.4016,150
127.8566,126
128.3116,111
128.7666,109
129.2216,109
129.6766,114
130.1316,123
130.5866,130
131.0416,124
131.4966,124
131.9516,114
132.4066,110
132.8616,120
133.3166,87
133.7716,100
134.2266,123
134.6816,119
135.1366,107
135.5916,119
136.0466,115
136.5016,128
136.9566,96
137.4116,112
137.8666,99
138.3216,119
138.7766,133
139.2316,117
139.6866,104
139.9986,139

File: 00-060-0761 (PD3).csv
5.0066,4418
5.4616,2274
5.9166,1702
6.3716,1853
6.8266,2556
7.2816,2141
7.7366,861
8.1916,432
8.6466,320
9.1016,234
9.5566,209
10.0116,221
10.4666,240
10.9216,227
11.3766,243
11.8316,252
12.2866,221
12.7416,265
13.1966,243
13.6516,270
14.1066,346
14.5616,324
15.0166,310
15.4716,347
15.9266,367
16.3816,419
16.8366,423
17.2916,504
17.7466,364
18.2016,332
18.6566,353
19.1116,353
19.5666,359
20.0216,343
20.4766,360
20.9316,383
21.3866,365
21.8416,354
22.2966,340
22.7516,371
23.2066,372
23.6616,421
24.1166,393
24.5716,364
25.0266,422
25.4816,418
25.9366,407
26.3916,440
26.8466,418
27.3016,401
27.7566,447
28.2116,1022
28.6666,467
29.1216,702
29.5766,508
30.0316,489
30.4866,477
30.9416,8662
31.3966,467
31.8516,486
32.3066,454
32.7616,1320
33.2166,1398
33.6716,699
34.1266,2112
34.5816,473
35.0366,1249
35.4916,497
35.9466,535
36.4016,447
36.8566,419
37.3116,887
37.7666,458
38.2216,450
38.6766,455
39.1316,426
39.5866,434
40.0416,452
40.4966,448
40.9516,527
41.4066,465
41.8616,445
42.3166,518
42.7716,494
43.2266,463
43.6816,459
44.1366,419
44.5916,430
45.0466,469
45.5016,438
45.9566,485
46.4116,475
46.8666,723
47.3216,606
47.7766,467
48.2316,536
48.6866,688
49.1416,461
49.5966,469
50.0516,1297
50.5066,485
50.9616,497
51.4166,552
51.8716,2754
52.3266,530
52.7816,537
53.2366,655
53.6916,959
54.1466,491
54.6016,475
55.0566,454
55.5116,494
55.9666,640
56.4216,723
56.8766,515
57.3316,986
57.7866,513
58.2416,579
58.6966,2376
59.1516,536
59.6066,460
60.0616,451
60.5166,490
60.9716,471
61.4266,458
61.8816,580
62.3366,475
62.7916,458
63.2466,496
63.7016,491
64.1566,683
64.6116,830
65.0666,485
65.5216,502
65.9766,501
66.4316,524
66.8866,478
67.3416,517
67.7966,966
68.2516,481
68.7066,600
69.1616,517
69.6166,893
70.0716,1122
70.5266,470
70.9816,477
71.4366,522
71.8916,539
72.3466,501
72.8016,503
73.2566,486
73.7116,482
74.1666,483
74.6216,522
75.0766,524
75.5316,489
75.9866,494
76.4416,879
76.8966,480
77.3516,473
77.8066,509
78.2616,516
78.7166,562
79.1716,507
79.6266,506
80.0816,527
80.5366,906
80.9916,616
81.4466,560
81.9016,936
82.3566,513
82.8116,532
83.2666,804
83.7216,767
84.1766,478
84.6316,518
85.0866,530
85.5416,603
85.9966,594
86.4516,546
86.9066,503
87.3616,513
87.8166,534
88.2716,595
88.7266,506
89.1816,505
89.6366,493
90.0916,554
90.5466,805
91.0016,524
91.4566,502
91.9116,536
92.3666,588
92.8216,611
93.2766,477
93.7316,537
94.1866,653
94.6416,570
95.0966,592
95.5516,742
96.0066,537
96.4616,519
96.9166,793
97.3716,608
97.8266,525
98.2816,492
98.7366,513
99.1916,559
99.6466,540
100.1016,558
100.5566,515
101.0116,510
101.4666,529
101.9216,548
102.3766,570
102.8316,527
103.2866,506
103.7416,511
104.1966,613
104.6516,547
105.1066,520
105.5616,513
106.0166,542
106.4716,545
106.9266,545
107.3816,639
107.8366,505
108.2916,551
108.7466,533
109.2016,560
109.6566,675
110.1116,551
110.5666,588
111.0216,557
111.4766,505
111.9316,541
112.3866,523
112.8416,542
113.2966,648
113.7516,627
114.2066,637
114.6616,547
115.1166,524
115.5716,733
116.0266,659
116.4816,559
116.9366,530
117.3916,518
117.8466,569
118.3016,553
118.7566,668
119.2116,572
119.6666,555
120.1216,528
120.5766,574
121.0316,631
121.4866,928
121.9416,742
122.3966,561
122.8516,589
123.3066,596
123.7616,593
124.2166,731
124.6716,737
125.1266,690
125.5816,645
126.0366,596
126.4916,608
126.9466,612
127.4016,631
127.8566,706
128.3116,654
128.7666,584
129.2216,597
129.6766,583
130.1316,599
130.5866,924
131.0416,648
131.4966,628
131.9516,660
132.4066,788
132.8616,615
133.3166,589
133.7716,583
134.2266,569
134.6816,593
135.1366,582
135.5916,566
136.0466,656
136.5016,580
136.9566,594
137.4116,607
137.8666,624
138.3216,591
138.7766,656
139.2316,680
139.6866,625
139.9986,648

File: 00-061-0052 (PD3).csv
15,2789
15.32,2765
15.64,2799
15.96,2797
16.28,2746
16.6,2718
16.92,2746
17.24,2771
17.56,2918
17.88,2776
18.2,2797
18.52,2734
18.84,2842
19.16,2889
19.48,2824
19.8,2734
20.12,2781
20.44,2761
20.76,2705
21.08,2709
21.4,2656
21.72,2687
22.04,3555
22.36,2695
22.68,2709
23,2967
23.32,3742
23.64,2756
23.96,2626
24.28,2672
24.6,2749
24.92,2761
25.24,2656
25.56,2721
25.88,2739
26.2,2691
26.52,2781
26.84,5947
27.16,2846
27.48,2765
27.8,2718
28.12,2825
28.44,2753
28.76,2705
29.08,2665
29.4,2702
29.72,2871
30.04,2747
30.36,2618
30.68,2768
31,2779
31.32,2761
31.64,2761
31.96,2889
32.28,3903
32.6,2788
32.92,2805
33.24,2878
33.56,2933
33.88,2936
34.2,4035
34.52,3421
34.84,3210
35.16,3223
35.48,5626
35.8,22588
36.12,3770
36.44,3365
36.76,4951
37.08,11321
37.4,3650
37.72,3469
38.04,10205
38.36,3946
38.68,3196
39,3066
39.32,3093
39.64,3014
39.96,3058
40.28,3203
40.6,2956
40.92,3036
41.24,2935
41.56,3120
41.88,3063
42.2,3167
42.52,3020
42.84,2988
43.16,3147
43.48,3546
43.8,7506
44.12,6510
44.44,3935
44.76,5838
45.08,4156
45.4,3120
45.72,3074
46.04,3033
46.36,2925
46.68,3011
47,3190
47.32,3893
47.64,3354
47.96,3030
48.28,3067
48.6,3049
48.92,3041
49.24,2997
49.56,3109
49.88,3023
50.2,3066
50.52,3106
50.84,2956
51.16,2941
51.48,3052
51.8,3121
52.12,3525
52.44,3081
52.76,2988
53.08,3067
53.4,3082
53.72,3062
54.04,3194
54.36,4251
54.68,3176
55,3662
55.32,4507
55.64,3412
55.96,3206
56.28,3116
56.6,3061
56.92,3183
57.24,3137
57.56,3631
57.88,3513
58.2,3126
58.52,3119
58.84,3229
59.16,3607
59.48,5141
59.8,3407
60.12,3215
60.44,3250
60.76,4246
61.08,3294
61.4,3365
61.72,4279
62.04,3395
62.36,3276
62.68,3193
63,3070
63.32,3162
63.64,3258
63.96,3424
64.28,5073
64.6,4116
64.92,3421
65.24,3254
65.56,3281
65.88,3263
66.2,3336
66.52,5097
66.84,3648
67.16,3313
67.48,3172
67.8,3256
68.12,3363
68.44,3455
68.76,5079
69.08,3828
69.4,3232
69.72,3305
70.04,3276
70.36,3295
70.68,3257
71,3233
71.32,3160
71.64,3214
71.96,3220
72.28,3345
72.6,3361
72.92,4066
73.24,3899
73.56,3388
73.88,3344
74.2,3447
74.52,3473
74.84,3458
75.16,4166
75.48,4165
75.8,4055
76.12,3959
76.44,3413
76.76,3364
77.08,3373
77.4,3255
77.72,3380
78.04,3347
78.36,3465
78.68,4228
79,3670
79.32,3370
79.64,3385
79.96,3247
80.28,3382
80.6,3476
80.92,3848
81.24,4578
81.56,4001
81.88,3986
82.2,3582
82.52,3423
82.84,3396
83.16,3431
83.48,3288
83.8,3383
84.12,3360
84.44,3314
84.76,3284
85.08,3395
85.4,3291
85.72,3310
86.04,3355
86.36,3412
86.68,3461
87,3221
87.32,3366
87.64,3387
87.96,3482
88.28,3624
88.6,3494
88.92,3485
89.24,3505
89.56,3458
89.88,3393
90.2,3369
90.52,3316
90.84,3372
91.16,3484
91.48,3464
91.8,3497
92.12,3431
92.44,3588
92.76,3547
93.08,3547
93.4,3439
93.72,3743
94.04,3787
94.36,3772
94.68,3447
95,3487
95.32,3411
95.64,3472
95.96,3524
96.28,3505
96.6,3624
96.92,3704
97.24,3971
97.56,4003
97.88,4180
98.2,3929
98.52,3603
98.84,3797
99.16,3920
99.48,3730
99.8,3481
100.12,3588
100.44,3587
100.76,3751
101.08,3859
101.4,3809
101.72,3688
102.04,3492
102.36,3464
102.68,3536
103,3573
103.32,3550
103.64,3537
103.96,3604
104.28,3912
104.6,3994
104.92,3807
105.24,3729
105.56,3622
105.88,3481
106.2,3484
106.52,3520
106.84,3459

File: 00-061-0054 (PD3).csv
12,1792
12.34,1903
12.68,1927
13.02,1925
13.36,1904
13.7,2069
14.04,4764
14.38,2005
14.72,2001
15.06,2019
15.4,2058
15.74,1992
16.08,2053
16.42,1987
16.76,2135
17.1,2075
17.44,2041
17.78,2099
18.12,2109
18.46,2128
18.8,2024
19.14,2062
19.48,2091
19.82,2246
20.16,2177
20.5,2198
20.84,2090
21.18,2080
21.52,2071
21.86,2047
22.2,2115
22.54,2069
22.88,2072
23.22,2056
23.56,2111
23.9,2118
24.24,2175
24.58,2326
24.92,2027
25.26,2113
25.6,2090
25.94,1951
26.28,2002
26.62,2056
26.96,2064
27.3,1997
27.64,2084
27.98,2099
28.32,2051
28.66,2018
29,2053
29.34,2027
29.68,2094
30.02,2008
30.36,2084
30.7,2199
31.04,2159
31.38,2484
31.72,10550
32.06,2373
32.4,2152
32.74,2189
33.08,2186
33.42,2185
33.76,2198
34.1,2343
34.44,2396
34.78,8649
35.12,2813
35.46,2285
35.8,2200
36.14,2164
36.48,2228
36.82,2139
37.16,2292
37.5,2737
37.84,7036
38.18,2471
38.52,2222
38.86,2170
39.2,2217
39.54,2170
39.88,2245
40.22,2789
40.56,6426
40.9,2387
41.24,2320
41.58,2226
41.92,2247
42.26,2478
42.6,3106
42.94,15408
43.28,4989
43.62,2705
43.96,2394
44.3,2325
44.64,2264
44.98,2383
45.32,2948
45.66,3232
46,2345
46.34,2245
46.68,2240
47.02,2212
47.36,2148
47.7,2215
48.04,2185
48.38,2169
48.72,2198
49.06,2102
49.4,2123
49.74,2151
50.08,3255
50.42,2201
50.76,2160
51.1,2079
51.44,2081
51.78,2123
52.12,2257
52.46,2452
52.8,2099
53.14,2108
53.48,2092
53.82,2100
54.16,2141
54.5,2113
54.84,2101
55.18,2056
55.52,2059
55.86,2105
56.2,2196
56.54,3525
56.88,2206
57.22,2154
57.56,2204
57.9,2173
58.24,2263
58.58,3307
58.92,2232
59.26,2116
59.6,2041
59.94,2192
60.28,2289
60.62,3001
60.96,2195
61.3,2139
61.64,2185
61.98,2193
62.32,2368
62.66,2842
63,2202
63.34,2201
63.68,2197
64.02,2298
64.36,5179
64.7,2468
65.04,2253
65.38,2081
65.72,2113
66.06,2184
66.4,2521
66.74,2174
67.08,2145
67.42,2081
67.76,2173
68.1,2099
68.44,2094
68.78,2153
69.12,2182
69.46,2243
69.8,2903
70.14,4389
70.48,2209
70.82,2154
71.16,2070
71.5,2056
71.84,2141
72.18,2119
72.52,2147
72.86,2180
73.2,2167
73.54,3187
73.88,2213
74.22,2170
74.56,2149
74.9,2121
75.24,2389
75.58,2340
75.92,2092
76.26,2125
76.6,2062
76.94,2146
77.28,2087
77.62,2162
77.96,2156
78.3,2238
78.64,2652
78.98,3576
79.32,2408
79.66,2163
80,2152
80.34,2202
80.68,2127
81.02,2209
81.36,2157
81.7,2094
82.04,2182
82.38,2603
82.72,2162
83.06,2178
83.4,2069
83.74,2095
84.08,2096
84.42,2044
84.76,2096
85.1,2124
85.44,2064
85.78,2901
86.12,2274
86.46,2084
86.8,2157
87.14,2140
87.48,2294
87.82,2116
88.16,2085
88.5,2072
88.84,2170
89.18,2934
89.52,2332
89.86,2079
90.2,2180
90.54,2141
90.88,2738
91.22,2374
91.56,2092
91.9,2093
92.24,2111
92.58,2175
92.92,2117
93.26,2105
93.6,2156
93.94,2145
94.28,3099
94.62,2728
94.96,2069
95.3,2101
95.64,2080
95.98,2364
96.32,2272
96.66,2037
97,2090
97.34,2051
97.68,2322
98.02,2137
98.36,2166
98.7,2135
99.04,2057
99.38,2034
99.72,2007
100.06,2086
100.4,2087
100.74,2053
101.08,2157
101.42,2149
101.76,2100
102.1,2100
102.44,2042
102.78,2083
103.12,2078
103.46,2105
103.8,2046
104.14,2035
104.48,2061
104.82,2294
105.16,2259
105.5,2085
105.84,2087
106.18,2157
106.52,3288
106.86,2617
107.2,2130
107.54,2103
107.88,2104
108.22,2265
108.56,2177
108.9,2160
109.24,2088
109.58,2160
109.92,2322
110.26,2587
110.6,2527
110.94,2167
111.28,2082
111.62,2064
111.96,2094
112.3,2072
112.38,2090