Folder: spectrumdavit/data/xrd_icdd_PDF (part 12)

File: 00-064-0101 (PD3).csv
20.015,1588.01
20.219,1595.72
20.423,1561.74
20.627,1580.24
20.831,1604.68
21.035,1561.65
21.239,1534.04
21.443,1542.1
21.647,1525.33
21.851,1524.86
22.055,1483.94
22.259,1501.03
22.463,1533.43
22.667,1550.28
22.871,1561.46
23.075,1498.94
23.279,1533.23
23.483,1616.03
23.687,1698.05
23.891,2452.2
24.095,4174.66
24.299,2197.84
24.503,2312.2
24.707,1690.446
24.911,1587.214
25.115,1555.91
25.319,1589.09
25.523,1537.79
25.727,1526.23
25.931,1501.94
26.135,1716.13
26.339,1693.39
26.543,1577.59
26.747,1521.6
26.951,1475.57
27.155,1465.3
27.359,1474.1
27.563,1415.3
27.767,1484.73
27.971,1507.505
28.175,1502.528
28.379,1529.55
28.583,1528.17
28.787,1608.95
28.991,1870.364
29.195,1542.11
29.399,1482.82
29.603,1508.98
29.807,1474.87
30.011,1486.07
30.215,1521.7
30.419,1456.18
30.623,1505.2
30.827,1451.81
31.031,1518.84
31.235,1538.61
31.439,1539.95
31.643,1781.52
31.847,1576.43
32.051,1467.47
32.255,1534.33
32.459,1594.68
32.663,1529.68
32.867,1481.636
33.071,1562.03
33.275,1593.82
33.479,1705.22
33.683,1694.93
33.887,1692.58
34.091,1765.19
34.295,1918.64
34.499,2373.27
34.703,3565.05
34.907,5583.44
35.111,3653.05
35.315,3297.51
35.519,4217.2
35.723,7040.91
35.927,10127.3
36.131,7477.95
36.335,4419.62
36.539,2994.72
36.743,2491.61
36.947,2010.25
37.151,1888.76
37.355,1753.29
37.559,1682.45
37.763,1736.87
37.967,1677.09
38.171,1652.38
38.375,1596.66
38.579,1580.25
38.783,1669.8
38.987,1721.13
39.191,2016.83
39.395,2536.08
39.599,2000
39.803,1837.58
40.007,1733.92
40.211,1673.17
40.415,1623.67
40.619,1689.18
40.823,1730.39
41.027,1764.49
41.231,1899.421
41.435,2328.26
41.639,3087.85
41.843,4004.51
42.047,5289.93
42.251,3264.48
42.455,3020.47
42.659,5317.409
42.863,4342.275
43.067,2646.607
43.271,2074.419
43.475,1732.14
43.679,1695.8
43.883,1642.61
44.087,1574.73
44.291,1514.81
44.495,1570.28
44.699,1504.1
44.903,1509.26
45.107,1439.478
45.311,1445
45.515,1537.08
45.719,1421.97
45.923,1438.01
46.127,1437.36
46.331,1418.73
46.535,1445.51
46.739,1417.87
46.943,1439.29
47.147,1442.18
47.351,1460.71
47.555,1424.04
47.759,1465.63
47.963,1486.58
48.167,1514.16
48.371,1527.46
48.575,1446.84
48.779,1477.729
48.983,1449.3
49.187,1630.56
49.391,1470.58
49.595,1479.46
49.799,1453.04
50.003,1496.419
50.207,1548.09
50.411,1473.27
50.615,1500.66
50.819,1523.61
51.023,1487.23
51.227,1538.61
51.431,1507.73
51.635,1508.17
51.839,1479.772
52.043,1455.14
52.247,1453.686
52.451,1512.02
52.655,1510.44
52.859,1516.08
53.063,1518.46
53.267,1468.08
53.471,1562.58
53.675,1617.102
53.879,1776.78
54.083,1739.32
54.287,1649.075
54.491,1609.99
54.695,1583.97
54.899,1577.8
55.103,1631.251
55.307,1734.05
55.511,1915.81
55.715,1814.325
55.919,1857.48
56.123,1979.94
56.327,2454.92
56.531,3108.55
56.735,2722.63
56.939,2091.19
57.143,2044.01
57.347,1959.39
57.551,1750.31
57.755,1731.51
57.959,1598.79
58.163,1655.51
58.367,1674.51
58.571,1774.73
58.775,1881.38
58.979,2092.82
59.183,1916.29
59.387,1769.74
59.591,1888.87
59.795,2057.97
59.999,2055.78
60.203,1951.43
60.407,1931.79
60.611,1996.6
60.815,1866.92
61.019,1797.22
61.223,1653.92
61.427,1580.24
61.631,1575.96
61.835,1561.47
62.039,1497.82
62.243,1541.33
62.447,1445.28
62.651,1470.542
62.855,1502.83
63.059,1562.74
63.263,1600.69
63.467,1467.71
63.671,1479.21
63.875,1492.26
64.079,1522.42
64.283,1452.25
64.487,1449.79
64.691,1519.57
64.895,1609.36
65.099,1659.1
65.303,1749.34
65.507,1840.85
65.711,1756.63
65.915,1580.25
66.119,1654.54
66.323,1602.62
66.527,1575.128
66.731,1571.51
66.935,1553.404
67.139,1556.13
67.343,1484.148
67.547,1555.79
67.751,1541.37
67.955,1583.4
68.159,1540.84
68.363,1546.52
68.567,1646.63
68.771,1619.03
68.975,1734.57
69.179,1818.27
69.383,1928.06
69.587,2143.51
69.791,2176.36
69.995,2031.26
70.199,2044.273
70.403,1903
70.607,1952.18
70.811,1926.17
71.015,1908.48
71.219,1941.01
71.423,1881.438
71.627,1975.06
71.831,1945.44
72.035,2130.27
72.239,2073.46
72.443,2023.71
72.647,2111.68
72.851,2073.72
73.055,1962.69
73.259,1847.24
73.463,1801.82
73.667,1833.86
73.871,1745.22
74.075,1641.47
74.279,1707.44
74.483,1647.43
74.687,1615.32
74.891,1588.59
75.095,1606.63
75.299,1569.08
75.503,1639.84
75.707,1630.35
75.911,1684.29
76.115,1684.31
76.319,1705.239
76.523,1628.97
76.727,1667.08
76.931,1787.32
77.135,1948.23
77.339,1996.69
77.543,1868.94
77.747,1790.61
77.951,1774.713
78.155,1813.39
78.359,1800.81
78.563,1744.16
78.767,1753.1
78.971,1623.43
79.175,1644.11
79.379,1593.43
79.583,1572.88
79.787,1617.43
79.974,1721.73

File: 00-064-0239 (PD3).csv
20.0154,121.0002
20.2534,105.4969
20.4914,113.8993
20.7294,101.6341
20.9674,90.0771
21.2054,106.9592
21.4434,100.0679
21.6814,97.0858
21.9194,86.3577
22.1574,139.9763
22.3954,86.0481
22.6334,89.6304
22.8714,102.9874
23.1094,91.1733
23.3474,89.5746
23.5854,83.2783
23.8234,85.5144
24.0614,78.6596
24.2994,89.2698
24.5374,75.0462
24.7754,70.0041
25.0134,75.2082
25.2514,77.3969
25.4894,62.6867
25.7274,67.0494
25.9654,61.892
26.2034,70.5508
26.4414,67.5968
26.6794,54.638
26.9174,82.7987
27.1554,77.7924
27.3934,63.4889
27.6314,64.5156
27.8694,51.2342
28.1074,55.5486
28.3454,54.1391
28.5834,40.339
28.8214,57.4484
29.0594,56.6612
29.2974,66.6257
29.5354,67.6453
29.7734,107.3214
30.0114,62.7037
30.2494,64.4162
30.4874,57.5046
30.7254,57.8817
30.9634,52.6226
31.2014,55.2135
31.4394,50.776
31.6774,44.1832
31.9154,60.657
32.1534,49.0325
32.3914,55.5285
32.6294,42.747
32.8674,53.317
33.1054,45.8813
33.3434,42.5433
33.5814,50.6597
33.8194,53.7027
34.0574,53.6245
34.2954,54.6432
34.5334,39.1815
34.7714,48.9962
35.0094,42.8638
35.2474,49.9702
35.4854,58.6103
35.7234,325.463
35.9614,121.8642
36.1994,53.997
36.4374,45.5571
36.6754,34.3375
36.9134,50.5749
37.1514,44.3341
37.3894,42.7362
37.6274,41.4091
37.8654,43.8462
38.1034,41.1733
38.3414,50.1214
38.5794,64.5346
38.8174,38.325
39.0554,53.7683
39.2934,72.8813
39.5314,72.8307
39.7694,63.0002
40.0074,68.404
40.2454,72.0558
40.4834,99.6454
40.7214,114.993
40.9594,717.1697
41.1974,1143.084
41.4354,132.6348
41.6734,82.193
41.9114,127.3621
42.1494,571.7083
42.3874,128.1963
42.6254,170.9699
42.8634,1127.136
43.1014,215.8879
43.3394,72.7666
43.5774,80.3746
43.8154,85.9567
44.0534,87.1539
44.2914,123.0107
44.5294,723.3867
44.7674,217.8945
45.0054,106.3437
45.2434,291.7706
45.4814,145.2835
45.7194,513.4049
45.9574,1098.858
46.1954,148.9544
46.4334,79.3937
46.6714,52.7234
46.9094,35.9982
47.1474,39.5473
47.3854,48.3608
47.6234,43.9976
47.8614,41.4056
48.0994,42.9672
48.3374,41.6442
48.5754,37.1565
48.8134,45.4117
49.0514,48.2321
49.2894,48.2452
49.5274,128.9625
49.7654,329.6894
50.0034,83.1294
50.2414,49.9972
50.4794,41.3056
50.7174,51.3523
50.9554,113.2275
51.1934,356.8159
51.4314,159.5892
51.6694,207.8245
51.9074,394.8951
52.1454,78.8301
52.3834,41.3176
52.6214,42.5204
52.8594,42.2897
53.0974,37.1311
53.3354,28.3574
53.5734,28.8924
53.8114,33.9981
54.0494,42.8179
54.2874,79.8273
54.5254,155.9105
54.7634,48.1583
55.0014,38.0133
55.2394,32.7941
55.4774,26.4087
55.7154,23.8107
55.9534,32.7992
56.1914,32.8394
56.4294,43.8683
56.6674,21.0036
56.9054,29.6112
57.1434,39.7321
57.3814,45.1034
57.6194,32.6147
57.8574,79.4737
58.0954,55.8235
58.3334,84.151
58.5714,44.6263
58.8094,32.8609
59.0474,50.6752
59.2854,59.5288
59.5234,36.0707
59.7614,64.0459
59.9994,40.1026
60.2374,33.1506
60.4754,20.8494
60.7134,25.7239
60.9514,36.2517
61.1894,36.1622
61.4274,45.439
61.6654,65.3792
61.9034,34.5656
62.1414,24.8125
62.3794,28.7193
62.6174,21.7847
62.8554,23.3162
63.0934,40.2833
63.3314,38.0682
63.5694,24.9163
63.8074,25.5259
64.0454,35.4766
64.2834,40.9087
64.5214,39.1275
64.7594,67.7078
64.9974,60.1442
65.2354,41.9243
65.4734,36.4071
65.7114,93.6107
65.9494,85.5546
66.1874,32.9688
66.4254,35.8076
66.6634,30.776
66.9014,45.5703
67.1394,39.2448
67.3774,33.1414
67.6154,31.9909
67.8534,26.6238
68.0914,19.42
68.3294,27.0047
68.5674,25.3144
68.8054,21.5391
69.0434,30.2056
69.2814,41.7065
69.5194,37.3817
69.7574,38.2241
69.9954,24.9929
70.2334,32.541
70.4714,59.5429
70.7094,36.7018
70.9474,26.7134
71.1854,26.027
71.4234,24.4995
71.6614,28.0771
71.8994,33.1108
72.1374,51.6325
72.3754,53.6543
72.6134,46.836
72.8514,94.6954
73.0894,64.0452
73.3274,61.8877
73.5654,134.3865
73.8034,201.6955
74.0414,254.0523
74.2794,153.1252
74.5174,55.4018
74.7554,46.157
74.9934,39.4982
75.2314,74.2731
75.4694,65.4497
75.7074,78.4199
75.9454,72.6317
76.1834,71.3191
76.4214,78.1084
76.6594,40.7312
76.8974,46.8738
77.1354,100.6548
77.3734,139.2436
77.6114,82.9521
77.8494,36.9966
78.0874,20.156
78.3254,36.8417
78.5634,27.5089
78.8014,41.5594
79.0394,84.0515
79.2774,92.1893
79.5154,121.7936
79.7534,94.7093
79.9914,55.1178
80.2294,49.4552
80.4674,28.5265
80.7054,23.0936
80.9434,27.1589
81.1814,22.0045
81.4194,25.0043
81.6574,33.1668
81.8954,28.522
82.1334,23.5957
82.3714,32.3652
82.6094,34.9353
82.8474,39.2975
83.0854,22.8041
83.3234,35.3221
83.5614,36.4868
83.7994,66.7902
84.0374,72.9119
84.2754,47.1518
84.5134,31.2485
84.7514,31.1306
84.9894,28.1811
85.2274,28.484
85.4654,31.5993
85.7034,40.3322
85.9414,42.0178
86.1794,106.1262
86.4174,75.2468
86.6554,40.1819
86.8934,48.0681
87.1314,122.5972
87.3694,234.2495
87.6074,140.5268
87.8454,76.2335
88.0834,42.2702
88.3214,49.1921
88.5594,66.0313
88.7974,86.6364
89.0354,135.4346
89.2734,114.3565
89.5114,85.8687
89.7494,84.2327
89.9874,42.6758
90.2254,33.3624
90.4634,36.8164
90.7014,40.191
90.9224,27.0047

File: 00-064-0241 (PD3).csv
20.0324,93.4953
20.2704,95.5972
20.5084,110.5224
20.7464,93.1954
20.9844,81.0864
21.2224,99.5812
21.4604,103.9652
21.6984,151.2419
21.9364,101.7201
22.1744,80.5588
22.4124,86.6435
22.6504,87.5029
22.8884,90.9937
23.1264,84.1865
23.3644,77.8586
23.6024,82.9416
23.8404,70.1038
24.0784,83.3829
24.3164,69.4352
24.5544,61.5146
24.7924,64.1414
25.0304,67.512
25.2684,65.5921
25.5064,53.9386
25.7444,63.342
25.9824,52.3254
26.2204,70.877
26.4584,54.6169
26.6964,66.2681
26.9344,57.8277
27.1724,43.9148
27.4104,60.8461
27.6484,48.4876
27.8864,48.0071
28.1244,52.2445
28.3624,48.0975
28.6004,45.4704
28.8384,49.2995
29.0764,62.3247
29.3144,95.3005
29.5524,45.3824
29.7904,57.6047
30.0284,54.2954
30.2664,49.6708
30.5044,41.0738
30.7424,52.3945
30.9804,40.1419
31.2184,37.7039
31.4564,45.1898
31.6944,37.3005
31.9324,45.556
32.1704,37.3514
32.4084,41.267
32.6464,41.3471
32.8844,39.5313
33.1224,38.6401
33.3604,43.746
33.5984,46.008
33.8364,40.1378
34.0744,38.7181
34.3124,47.6923
34.5504,52.8989
34.7884,58.9255
35.0264,133.0898
35.2644,490.3655
35.5024,69.5566
35.7404,55.8144
35.9784,39.7872
36.2164,33.9468
36.4544,41.9785
36.6924,37.3019
36.9304,33.9981
37.1684,38.5331
37.4064,36.6314
37.6444,42.9146
37.8824,35.6416
38.1204,33.594
38.3584,34.0706
38.5964,49.0833
38.8344,73.2283
39.0724,54.4319
39.3104,86.0458
39.5484,70.8845
39.7864,65.0253
40.0244,82.9954
40.2624,152.3025
40.5004,1841.477
40.7384,465.9625
40.9764,107.6663
41.2144,68.7379
41.4524,95.9947
41.6904,816.4429
41.9284,1517
42.1664,154.8899
42.4044,59.9738
42.6424,48.987
42.8804,49.7239
43.1184,56.9575
43.3564,86.6058
43.5944,58.2118
43.8324,133.6402
44.0704,992.6514
44.3084,382.1807
44.5464,86.7412
44.7844,82.6485
45.0224,152.1034
45.2604,1983.534
45.4984,289.9926
45.7364,73.4067
45.9744,47.083
46.2124,39.883
46.4504,42.0649
46.6884,22.3077
46.9264,35.8436
47.1644,36.4057
47.4024,27.1642
47.6404,27.8464
47.8784,24.5891
48.1164,30.079
48.3544,42.5844
48.5924,134.1236
48.8304,376.0634
49.0684,43.9426
49.3064,38.3819
49.5444,42.9076
49.7824,48.5035
50.0204,34.0159
50.2584,38.1025
50.4964,104.9517
50.7344,553.6872
50.9724,533.9589
51.2104,63.2237
51.4484,39.7832
51.6864,35.3035
51.9244,22.8483
52.1624,25.7243
52.4004,16.6875
52.6384,19.6451
52.8764,20.6012
53.1144,21.5569
53.3524,27.937
53.5904,42.6
53.8284,153.2438
54.0664,36.4976
54.3044,25.8114
54.5424,22.3627
54.7804,18.6663
55.0184,17.7268
55.2564,18.4486
55.4944,12.996
55.7324,27.6982
55.9704,22.662
56.2084,15.726
56.4464,14.1543
56.6844,52.7109
56.9224,56.0551
57.1604,27.7627
57.3984,21.9988
57.6364,50.0111
57.8744,41.9523
58.1124,22.4032
58.3504,30.0833
58.5884,99.9515
58.8264,93.2304
59.0644,48.684
59.3024,35.212
59.5404,20.8512
59.7784,18.5341
60.0164,19.7643
60.2544,21.5181
60.4924,24.8606
60.7304,56.2371
60.9684,20.0549
61.2064,23.3174
61.4444,20.0035
61.6824,41.4726
61.9204,21.7667
62.1584,18.6786
62.3964,9.2187
62.6344,16.7428
62.8724,16.9991
63.1104,15.0056
63.3484,19.8769
63.5864,18.9763
63.8244,21.6704
64.0624,51.7997
64.3004,54.9764
64.5384,24.254
64.7764,32.9897
65.0144,148.1032
65.2524,82.4813
65.4904,36.2497
65.7284,27.9921
65.9664,30.915
66.2044,26.4577
66.4424,21.6333
66.6804,23.8586
66.9184,20.6704
67.1564,9.8943
67.3944,18.3002
67.6324,15.4512
67.8704,20.4572
68.1084,21.6577
68.3464,26.0045
68.5844,51.4341
68.8224,86.0547
69.0604,37.1629
69.2984,15.1446
69.5364,12.9707
69.7744,16.9924
70.0124,28.0716
70.2504,27.4895
70.4884,34.4642
70.7264,30.3877
70.9644,22.4315
71.2024,46.2387
71.4404,34.4019
71.6784,34.4862
71.9164,105.9784
72.1544,165.6603
72.3924,136.813
72.6304,74.3919
72.8684,184.4288
73.1064,136.6872
73.3444,29.0041
73.5824,19.4452
73.8204,39.7849
74.0584,41.0231
74.2964,43.824
74.5344,104.561
74.7724,67.8717
75.0104,33.2194
75.2484,75.7977
75.4864,127.1694
75.7244,114.3487
75.9624,62.0584
76.2004,19.7894
76.4384,21.9373
76.6764,23.004
76.9144,20.6508
77.1524,19.7926
77.3904,24.4334
77.6284,27.7578
77.8664,113.2801
78.1044,71.5395
78.3424,41.3293
78.5804,89.8384
78.8184,79.4611
79.0564,32.9655
79.2944,15.4848
79.5324,22.938
79.7704,19.9943
80.0084,25.8396
80.2464,13.2832
80.4844,16.0231
80.7224,22.5909
80.9604,21.173
81.1984,20.0923
81.4364,15.1155
81.6744,24.9893
81.9124,30.7433
82.1504,97.6668
82.3884,53.3241
82.6264,27.4704
82.8644,18.6128
83.1024,22.1213
83.3404,21.2757
83.5784,24.8122
83.8164,19.5323
84.0544,18.1728
84.2924,30.6395
84.5304,29.5799
84.7684,109.1916
85.0064,81.7606
85.2444,109.9
85.4824,92.4798
85.7204,59.7583
85.9584,92.4375
86.1964,93.9265
86.4344,72.9911
86.6724,36.9533
86.9104,29.8422
87.1484,19.9039
87.3864,46.8715
87.6244,166.2694
87.8624,104.1081
88.1004,58.8134
88.3384,78.4943
88.5764,49.7505
88.8144,35.7581
89.0524,20.5013
89.2904,18.8156
89.5284,20.5408
89.7664,19.3242
90.0044,18.3236
90.2424,17.6313
90.4804,17.2268
90.7184,16.4302
90.9224,12.3921

File: 00-064-0248 (PD3).csv
20.0154,97.0006
20.2534,96.3806
20.4914,93.5435
20.7294,79.2179
20.9674,92.7132
21.2054,93.4506
21.4434,88.4212
21.6814,101.7672
21.9194,87.5791
22.1574,91.4105
22.3954,90.7648
22.6334,81.6834
22.8714,81.9786
23.1094,76.4381
23.3474,84.8664
23.5854,73.4565
23.8234,70.111
24.0614,77.1949
24.2994,60.5189
24.5374,63.4079
24.7754,57.4112
25.0134,52.6401
25.2514,62.1836
25.4894,65.6865
25.7274,58.6339
25.9654,67.4308
26.2034,59.8873
26.4414,60.3489
26.6794,52.6401
26.9174,69.0483
27.1554,111.9801
27.3934,97.0252
27.6314,59.8523
27.8694,53.1809
28.1074,50.9111
28.3454,47.0707
28.5834,42.5421
28.8214,65.1936
29.0594,50.4691
29.2974,50.9972
29.5354,49.9443
29.7734,49.1761
30.0114,54.6083
30.2494,50.6019
30.4874,44.0026
30.7254,33.4943
30.9634,45.2417
31.2014,51.9419
31.4394,85.9859
31.6774,114.8284
31.9154,47.9974
32.1534,39.0506
32.3914,31.3736
32.6294,39.2865
32.8674,36.7507
33.1054,34.6642
33.3434,30.6354
33.5814,44.3601
33.8194,36.1452
34.0574,39.1678
34.2954,43.7766
34.5334,33.0594
34.7714,34.9721
35.0094,33.4759
35.2474,26.7356
35.4854,24.6122
35.7234,50.6424
35.9614,25.2373
36.1994,30.2397
36.4374,38.1475
36.6754,38.0658
36.9134,25.0484
37.1514,30.6713
37.3894,31.0252
37.6274,32.3023
37.8654,28.857
38.1034,27.0047
38.3414,32.1247
38.5794,34.5994
38.8174,29.3068
39.0554,37.6471
39.2934,27.6269
39.5314,33.18
39.7694,23.3819
40.0074,28.5907
40.2454,29.005
40.4834,27.1731
40.7214,44.0519
40.9594,32.7073
41.1974,34.1096
41.4354,30.1565
41.6734,24.0335
41.9114,32.288
42.1494,31.9801
42.3874,25.8969
42.6254,24.35
42.8634,39.6609
43.1014,50.1987
43.3394,71.5541
43.5774,55.2104
43.8154,44.5067
44.0534,42.9933
44.2914,57.6868
44.5294,74.7388
44.7674,119.4622
45.0054,398.9004
45.2434,4343.67
45.4814,601.5688
45.7194,159.4557
45.9574,61.146
46.1954,45.605
46.4334,37.5027
46.6714,33.3596
46.9094,30.9981
47.1474,28.5735
47.3854,23.5533
47.6234,33.9392
47.8614,22.8088
48.0994,20.7123
48.3374,23.5677
48.5754,32.5753
48.8134,26.2175
49.0514,30.4748
49.2894,17.9906
49.5274,18.0294
49.7654,19.348
50.0034,20.6999
50.2414,16.5976
50.4794,22.9218
50.7174,19.592
50.9554,16.7727
51.1934,19.6291
51.4314,17.0699
51.6694,20.8587
51.9074,19.2376
52.1454,23.6534
52.3834,17.2099
52.6214,25.4449
52.8594,27.0047
53.0974,19.2652
53.3354,25.1832
53.5734,84.6316
53.8114,56.6484
54.0494,22.819
54.2874,19.5038
54.5254,19.0033
54.7634,18.0526
55.0014,17.6708
55.2394,19.5975
55.4774,20.8758
55.7154,14.5467
55.9534,22.5734
56.1914,56.377
56.4294,22.9643
56.6674,20.2565
56.9054,11.9843
57.1434,22.6702
57.3814,22.7412
57.6194,15.9089
57.8574,16.6026
58.0954,18.1047
58.3334,13.2244
58.5714,19.7415
58.8094,13.862
59.0474,15.9991
59.2854,16.1765
59.5234,12.846
59.7614,16.1596
59.9994,13.0023
60.2374,17.1515
60.4754,13.7607
60.7134,10.0874
60.9514,12.7903
61.1894,9.7701
61.4274,11.7934
61.6654,16.6915
61.9034,17.1478
62.1414,9.8605
62.3794,16.9432
62.6174,18.7013
62.8554,28.9031
63.0934,23.9062
63.3314,21.9988
63.5694,17.7338
63.8074,17.0029
64.0454,15.7522
64.2834,18.048
64.5214,20.9941
64.7594,15.8946
64.9974,21.1217
65.2354,21.7502
65.4734,60.4133
65.7114,148.7769
65.9494,423.5631
66.1874,173.5484
66.4254,59.4723
66.6634,30.5466
66.9014,34.5684
67.1394,23.4185
67.3774,18.4101
67.6154,20.9754
67.8534,18.8607
68.0914,13.7247
68.3294,17.9001
68.5674,19.4534
68.8054,15.6484
69.0434,20.4891
69.2814,12.7007
69.5194,18.2545
69.7574,19.5578
69.9954,15.3844
70.2334,12.0021
70.4714,21.4341
70.7094,18.4814
70.9474,19.2946
71.1854,17.975
71.4234,17.5078
71.6614,15.9955
71.8994,18.9946
72.1374,17.9762
72.3754,17.9282
72.6134,26.037
72.8514,35.7852
73.0894,25.6383
73.3274,20.9941
73.5654,14.3924
73.8034,18.0031
74.0414,16.5529
74.2794,18.7028
74.5174,26.828
74.7554,22.8956
74.9934,40.7585
75.2314,28.5801
75.4694,21.8463
75.7074,16.628
75.9454,21.4288
76.1834,17.6613
76.4214,17.0698
76.6594,17.9858
76.8974,16.1122
77.1354,19.0033
77.3734,17.1822
77.6114,24.6759
77.8494,20.3385
78.0874,14.1173
78.3254,12.9535
78.5634,13.4564
78.8014,14.2657
79.0394,20.0035
79.2774,25.8301
79.5154,29.5336
79.7534,14.8568
79.9914,21.8159
80.2294,20.5829
80.4674,13.631
80.7054,18.4884
80.9434,11.4645
81.1814,20.4996
81.4194,17.7827
81.6574,21.7062
81.8954,19.9943
82.1334,24.341
82.3714,27.1206
82.6094,33.0865
82.8474,43.582
83.0854,81.5137
83.3234,177.4546
83.5614,764.7496
83.7994,478.4917
84.0374,108.3624
84.2754,56.2253
84.5134,35.1465
84.7514,23.8875
84.9894,33.7592
85.2274,26.3312
85.4654,18.9658
85.7034,17.3282
85.9414,22.9882
86.1794,24.0257
86.4174,17.8586
86.6554,17.3624
86.8934,18.9435
87.1314,20.5796
87.3694,15.1805
87.6074,20.7774
87.8454,13.3687
88.0834,15.2519
88.3214,15.1526
88.5594,11.7052
88.7974,19.2873
89.0354,13.7385
89.2734,13.3851
89.5114,22.2557
89.7494,11.6566
89.9874,24.4198
90.2254,20.2206
90.4634,12.6008
90.7014,14.7934
90.9224,14.5224

File: 00-064-0303 (PD3).csv
5,2520
5.32,2277
5.64,2280
5.96,1830
6.28,1875
6.6,1728
6.92,1692
7.24,1593
7.56,1470
7.88,1479
8.2,1443
8.52,1434
8.84,1167
9.16,1221
9.48,1167
9.8,1149
10.12,1110
10.44,1041
10.76,1092
11.08,972
11.4,984
11.72,1056
12.04,900
12.36,882
12.68,810
13,720
13.32,729
13.64,723
13.96,681
14.28,729
14.6,699
14.92,651
15.24,1284
15.56,639
15.88,600
16.2,537
16.52,507
16.84,471
17.16,474
17.48,444
17.8,441
18.12,669
18.44,570
18.76,435
19.08,441
19.4,438
19.72,408
20.04,450
20.36,369
20.68,420
21,438
21.32,612
21.64,348
21.96,360
22.28,372
22.6,426
22.92,1839
23.24,609
23.56,366
23.88,318
24.2,339
24.52,315
24.84,351
25.16,318
25.48,393
25.8,294
26.12,375
26.44,657
26.76,1011
27.08,5445
27.4,492
27.72,438
28.04,531
28.36,861
28.68,753
29,1743
29.32,40074
29.64,1986
29.96,2433
30.28,39777
30.6,2640
30.92,29217
31.24,2298
31.56,969
31.88,1860
32.2,27417
32.52,4506
32.84,40791
33.16,2007
33.48,4812
33.8,25668
34.12,1137
34.44,576
34.76,357
35.08,600
35.4,474
35.72,381
36.04,291
36.36,300
36.68,366
37,1446
37.32,282
37.64,234
37.96,207
38.28,270
38.6,228
38.92,210
39.24,318
39.56,648
39.88,1332
40.2,2931
40.52,425
40.84,405
41.16,693
41.48,2232
41.8,420
42.12,1395
42.44,8616
42.76,864
43.08,1230
43.4,3507
43.72,3753
44.04,10851
44.36,660
44.68,408
45,273
45.32,366
45.64,666
45.96,405
46.28,309
46.6,306
46.92,391
47.24,702
47.56,467
47.88,978
48.2,486
48.52,537
48.84,1260
49.16,23283
49.48,2112
49.8,663
50.12,657
50.44,1320
50.76,1179
51.08,852
51.4,399
51.72,357
52.04,465
52.36,900
52.68,1698
53,1539
53.32,14241
53.64,4410
53.96,1005
54.28,1512
54.6,966
54.92,666
55.24,903
55.56,7887
55.88,8715
56.2,1023
56.52,879
56.84,2427
57.16,6513
57.48,17160
57.8,3225
58.12,1692
58.44,1824
58.76,1041
59.08,618
59.4,1098
59.72,516
60.04,441
60.36,465
60.68,1437
61,7035
61.32,1062
61.64,597
61.96,1671
62.28,1419
62.6,8781
62.92,10044
63.24,4422
63.56,4647
63.88,3972
64.2,897
64.52,2754
64.84,1563
65.16,360
65.48,306
65.8,384
66.12,1929
66.44,999
66.76,783
67.08,1236
67.4,1653
67.72,411
68.04,402
68.36,540
68.68,1950
69,1179
69.32,1041
69.64,465
69.96,345
70.28,465
70.6,309
70.92,453
71.24,885
71.56,1962
71.88,882
72.2,420
72.52,714
72.84,2181
73.16,1437
73.48,2418
73.8,1008
74.12,444
74.44,504
74.76,399
75.08,888
75.4,627
75.72,336
76.04,351
76.36,669
76.68,708
77,366
77.32,390
77.64,453
77.96,636
78.28,3456
78.6,1509
78.92,4098
79.24,1470
79.56,1095
79.88,603
80.2,624
80.52,1140
80.84,3723
81.16,1209
81.48,891
81.8,3867
82.12,4653
82.44,2481
82.76,774
83.08,687
83.4,990
83.72,1458
84.04,774
84.36,369
84.68,381
85,975
85.32,990
85.64,432
85.96,654
86.28,1488
86.6,1182
86.92,1872
87.24,1587
87.56,1386
87.88,1875
88.2,3270
88.52,5016
88.84,2589
89.16,1368
89.48,1581
89.8,2679
90.12,2205
90.44,813
90.76,1107
91.08,1296
91.4,750
91.72,870
92.04,2268
92.36,3372
92.68,2343
93,1194
93.32,1173
93.64,882
93.96,1335
94.28,1812
94.6,1395
94.92,2238
95.24,1614
95.56,792
95.88,597
96.2,1656
96.52,1038
96.84,381
97.16,363
97.48,345
97.8,330
98.12,432
98.44,1047
98.76,2226
99.08,1359
99.4,1017
99.72,1512
100,1185

File: 00-064-0428 (PD3).csv
10,982
10.32,923
10.64,1027
10.96,1018
11.28,909
11.6,893
11.92,904
12.24,883
12.56,856
12.88,827
13.2,790
13.52,749
13.84,760
14.16,758
14.48,717
14.8,643
15.12,602
15.44,621
15.76,584
16.08,595
16.4,496
16.72,514
17.04,462
17.36,438
17.68,451
18,333
18.32,366
18.64,386
18.96,318
19.28,325
19.6,328
19.92,323
20.24,304
20.56,341
20.88,330
21.2,338
21.52,291
21.84,245
22.16,234
22.48,310
22.8,355
23.12,331
23.44,1088
23.76,10597
24.08,1650
24.4,400
24.72,301
25.04,274
25.36,237
25.68,264
26,272
26.32,293
26.64,1658
26.96,336
27.28,248
27.6,280
27.92,229
28.24,272
28.56,250
28.88,266
29.2,291
29.52,274
29.84,245
30.16,270
30.48,240
30.8,264
31.12,246
31.44,264
31.76,286
32.08,285
32.4,398
32.72,4963
33.04,1691
33.36,675
33.68,2507
34,48456
34.32,2147
34.64,1099
34.96,13254
35.28,483
35.6,299
35.92,227
36.24,211
36.56,214
36.88,264
37.2,267
37.52,237
37.84,248
38.16,240
38.48,358
38.8,674
39.12,419
39.44,490
39.76,234
40.08,286
40.4,1754
40.72,1158
41.04,4936
41.36,296
41.68,245
42,163
42.32,298
42.64,1381
42.96,806
43.28,258
43.6,462
43.92,1242
44.24,326
44.56,413
44.88,768
45.2,269
45.52,235
45.84,274
46.16,355
46.48,218
46.8,171
47.12,198
47.44,205
47.76,272
48.08,442
48.4,6762
48.72,1893
49.04,10008
49.36,512
49.68,1312
50,864
50.32,446
50.64,926
50.96,235
51.28,246
51.6,222
51.92,221
52.24,251
52.56,251
52.88,350
53.2,1405
53.52,2130
53.84,1000
54.16,443
54.48,541
54.8,3618
55.12,8818
55.44,1234
55.76,384
56.08,1160
56.4,1248
56.72,307
57.04,261
57.36,280
57.68,352
58,349
58.32,333
58.64,325
58.96,834
59.28,5171
59.6,3816
59.92,755
60.24,7982
60.56,867
60.88,402
61.2,614
61.52,7261
61.84,8203
62.16,6222
62.48,1182
62.8,413
63.12,323
63.44,246
63.76,291
64.08,301
64.4,282
64.72,267
65.04,275
65.36,293
65.68,264
66,389
66.32,696
66.64,510
66.96,293
67.28,245
67.6,259
67.92,310
68.24,250
68.56,386
68.88,1224
69.2,390
69.52,248
69.84,312
70.16,531
70.48,389
70.8,296
71.12,590
71.44,1853
71.76,2006
72.08,587
72.4,280
72.72,243
73.04,256
73.36,302
73.68,1130
74,1395
74.32,1139
74.64,293
74.96,418
75.28,1856
75.6,1507
75.92,910
76.24,462
76.56,358
76.88,586
77.2,394
77.52,558
77.84,1056
78.16,517
78.48,325
78.8,554
79.12,538
79.44,566
79.76,352
80.08,483
80.4,357
80.72,478
81.04,1110
81.36,690
81.68,2477
82,2954
82.32,533
82.64,1208
82.96,757
83.28,843
83.6,781
83.92,515
84.24,1470
84.56,685
84.88,1427
85.2,709
85.52,256
85.84,272
86.16,792
86.48,506
86.8,456
87.12,517
87.44,666
87.76,594
88.08,438
88.4,592
88.72,475
89.04,931
89.36,504
89.68,232
90,227
90.32,416
90.64,349
90.96,317
91.28,296
91.6,208
91.92,283
92.24,504
92.56,547
92.88,491
93.2,370
93.52,1314
93.84,898
94.16,386
94.48,274
94.8,282
95.12,221
95.44,251
95.76,786
96.08,642
96.4,733
96.72,781
97.04,622
97.36,707
97.68,872
98,464
98.32,333
98.64,293
98.96,802
99.28,699
99.6,826
99.92,851
100,1234