Folder: spectrumdavit/data/xrd_icdd_PDF (part 13)

File: 00-064-0863 (PD3).csv
10,1880
10.45,1846
10.9,1820
11.35,1672
11.8,1606
12.25,1578
12.7,1541
13.15,1506
13.6,1461
14.05,1409
14.5,1329
14.95,1315
15.4,1341
15.85,1356
16.3,1244
16.75,1361
17.2,1360
17.65,1337
18.1,1395
18.55,1400
19,1424
19.45,1483
19.9,1472
20.35,1438
20.8,1522
21.25,1558
21.7,1545
22.15,1560
22.6,1736
23.05,2026
23.5,2430
23.95,3566
24.4,6919
24.85,29129
25.3,50093
25.75,25470
26.2,6251
26.65,3274
27.1,2225
27.55,1734
28,1400
28.45,1232
28.9,1154
29.35,1066
29.8,1059
30.25,943
30.7,1029
31.15,911
31.6,843
32.05,885
32.5,869
32.95,768
33.4,782
33.85,782
34.3,807
34.75,815
35.2,898
35.65,1168
36.1,1530
36.55,2912
37,4840
37.45,7841
37.9,13977
38.35,7386
38.8,4415
39.25,2176
39.7,1321
40.15,949
40.6,891
41.05,892
41.5,758
41.95,745
42.4,786
42.85,747
43.3,766
43.75,693
44.2,735
44.65,832
45.1,855
45.55,958
46,1095
46.45,1432
46.9,2033
47.35,5631
47.8,12958
48.25,12322
48.7,5133
49.15,1912
49.6,1264
50.05,1063
50.5,960
50.95,853
51.4,948
51.85,1080
52.3,1207
52.75,1534
53.2,2910
53.65,8247
54.1,11174
54.55,8510
55,9834
55.45,6591
55.9,2687
56.35,1567
56.8,1105
57.25,899
57.7,773
58.15,725
58.6,714
59.05,706
59.5,715
59.95,686
60.4,817
60.85,998
61.3,1383
61.75,2570
62.2,5293
62.65,8000
63.1,5693
63.55,2268
64,1310
64.45,933
64.9,812
65.35,716
65.8,631
66.25,655
66.7,678
67.15,707
67.6,884
68.05,1279
68.5,2829
68.95,3761
69.4,2638
69.85,3058
70.3,3660
70.75,2402
71.2,1249
71.65,854
72.1,748
72.55,759
73,792
73.45,961
73.9,1341
74.35,2228
74.8,4267
75.25,5315
75.7,3568
76.15,2360
76.6,1600
77.05,983
77.5,715
77.95,652
78.4,599
78.85,562
79.3,514
79.75,596
80.2,618
80.65,780
81.1,939
81.55,1122
82,1811
82.45,3000
82.9,3467
83.35,2299
83.8,1404
84.25,882
84.7,660
85.15,539
85.6,518
86.05,449
86.5,476
86.95,453
87.4,478
87.85,460
88.3,390
88.75,368
89.2,396
89.65,375
90.1,455
90.55,399
91,384
91.45,442
91.9,497
92.35,534
92.8,645
93.25,957
93.7,1356
94.15,1677
94.6,1877
95.05,1833
95.5,1543
95.95,1098
96.4,756
96.85,652
97.3,615
97.75,732
98.2,1074
98.65,1319
99.1,1081
99.55,1012
100,1079
100.45,990
100.9,862
101.35,905
101.8,752
102.25,622
102.7,561
103.15,542
103.6,480
104.05,544
104.5,514
104.95,547
105.4,553
105.85,687
106.3,742
106.75,1102
107.2,1604
107.65,1958
108.1,1751
108.55,1573
109,1435
109.45,1286
109.9,1054
110.35,784
110.8,700
111.25,743
111.7,766
112.15,874
112.6,1065
113.05,1370
113.5,1848
113.95,2203
114.4,2298
114.85,2129
115.3,1734
115.75,1457
116.2,1134
116.65,1073
117.1,1093
117.55,1291
118,1921
118.45,2628
118.9,2993
119.35,2554
119.8,2069
120.25,1846
120.7,1669
121.15,1734
121.6,1822
122.05,1968
122.5,2081
122.95,1969
123.4,1604
123.85,1234
124.3,1027
124.75,917
125.2,870
125.65,823
126.1,795
126.55,848
127,801
127.45,775
127.9,842
128.35,851
128.8,896
129.25,967
129.7,1139
130.15,1464
130.6,1628
131.05,1824
131.5,1732
131.95,1686
132.4,1468
132.85,1316
133.3,1156
133.75,1069
134.2,1012
134.65,1007
135.1,1028
135.55,1165
136,1368
136.45,1542
136.9,1716
137.35,1881
137.8,1891
138.25,1742
138.7,1528
139.15,1303
139.6,1122
140,1085

File: 00-065-0316 (PD3).csv
3.24286,2325.74
3.82786,1694.73
4.41286,1231.55
4.99786,995.063
5.58286,909.909
6.16786,871.631
6.75286,740.1359
7.33786,658.959
7.92286,646.312
8.50786,665.362
9.09286,647.644
9.67786,590.144
10.26286,554.033
10.84786,532.654
11.43286,500.961
12.01786,485.083
12.60286,474.46
13.18786,454.569
13.77286,489.775
14.35786,8292.92
14.94286,468.115
15.52786,485.311
16.11286,468.366
16.69786,505.318
17.28286,478.407
17.86786,490.84
18.45286,530.021
19.03786,568.029
19.62286,595.811
20.20786,779.408
20.79286,668.454
21.37786,668.545
21.96286,696.808
22.54786,1560.76
23.13286,839.899
23.71786,721.173
24.30286,3695.04
24.88786,821.302
25.47286,798.995
26.05786,838.692
26.64286,880.0285
27.22786,1001.68
27.81286,944.943
28.39786,4884.19
28.98286,1800.91
29.56786,1009.55
30.15286,1168.43
30.73786,6687.91
31.32286,1075.75
31.90786,81654.4
32.49286,1217
33.07786,700.117
33.66286,624.022
34.24786,627.735
34.83286,608.873
35.41786,586.773
36.00286,514.292
36.58786,459.895
37.17286,494.448
37.75786,461.806
38.34286,638.749
38.92786,486.986
39.51286,464.417
40.09786,461.123
40.68286,468.887
41.26786,987.715
41.85286,504.437
42.43786,623.147
43.02286,631.582
43.60786,9879.8
44.19286,741.3449
44.77786,565.801
45.36286,549.842
45.94786,618.006
46.53286,829.687
47.11786,626.677
47.70286,2362.85
48.28786,616.562
48.87286,717.73
49.45786,631.484
50.04286,1045.86
50.62786,1173.53
51.21286,668.483
51.79786,638.31
52.38286,875.846
52.96786,2010.45
53.55286,1346.53
54.13786,699.806
54.72286,779.752
55.30786,11908.8
55.89286,769.898
56.47786,3833.77
57.06286,950.059
57.64786,10531.7
58.23286,710.125
58.81786,949.107
59.40286,2205.27
59.98786,585.699
60.57286,549.449
61.15786,581.51
61.74286,1090.47
62.32786,571.401
62.91286,538.422
63.49786,1110.46
64.08286,607.732
64.66786,1175.08
65.25286,823.45
65.83786,587.821
66.42286,735.759
67.00786,657.512
67.59286,714.71
68.17786,547.8487
68.76286,841.912
69.34786,519.5
69.93286,492.901
70.51786,497.499
71.10286,505.39
71.68786,551.004
72.27286,1697.56
72.85786,969.031
73.44286,852.466
74.02786,1192.06
74.61286,1134.63
75.19786,877.931
75.78286,680.692
76.36786,680.404
76.95286,4959.32
77.53786,640.698
78.12286,667.917
78.70786,2155.49
79.29286,638.617
79.87786,679.78
80.46286,1757.31
81.04786,616.258
81.63286,684.4152
82.21786,1626
82.80286,600.837
83.38786,1452.844
83.97286,1002.96
84.55786,633.669
85.14286,665.032
85.72786,4851.9
86.31286,652.17
86.89786,793.2223
87.48286,929.005
88.06786,569.25
88.65286,597.698
89.23786,1501.38
89.82286,631.146
90.40786,1113.55
90.99286,1301.41
91.57786,735.294
92.16286,574.812
92.74786,1390.79
93.33286,720.408
93.91786,526.0599
94.50286,1871.28
95.08786,679.469
95.67286,1496.17
96.25786,866.7667
96.84286,559.349
97.42786,941.607
98.01286,705.287
98.59786,511.117
99.18286,468.229
99.76786,461.057
100.353,473.375
100.938,478.925
101.523,650.314
102.108,516.719
102.693,665.502
103.278,782.876
103.863,1026.29
104.448,539.604
105.033,675.867
105.618,794.317
106.203,485.13
106.788,478.196
107.373,656.465
107.958,567.699
108.543,800.201
109.128,785.289
109.713,674.856
110.298,513.167
110.883,738.742
111.468,605.285
112.053,1360.86
112.638,1158.61
113.223,989.671
113.808,546.999
114.393,601.279
114.978,883.639
115.563,588.43
116.148,1406.3
116.733,597.863
117.318,587.762
117.903,612.303
118.488,785.825
119.073,1120.29
119.658,595.384
120.243,705.926
120.828,1218.98
121.413,579.5853
121.998,491.91
122.583,518.881
123.168,591.447
123.753,601.404
124.338,953.186
124.923,1210.85
125.508,1417.83
126.093,629.393
126.678,597.961
127.263,612.59
127.848,583.945
128.433,506.611
129.018,610.955
129.603,1064.03
130.188,676.325
130.773,528.344
131.358,616.775
131.943,930.83
132.528,607.28
133.113,618.376
133.698,752.9821
134.283,903.087
134.868,1139.34
135.453,599.097
136.038,647.152
136.623,494.831
137.208,464.181
137.793,478.462
138.378,736.0226
138.963,620.923
139.548,473.98
140.133,446.509
140.718,459.695
141.303,471.675
141.888,536.621
142.473,556.276
143.058,486.935
143.643,454.028
144.228,495.596
144.813,512.7786
145.398,621.722
145.983,651.77
146.568,488.883
147.153,452.392
147.738,495.9129
148.323,592.8055
148.908,671.986
149.493,601.386
150.078,538.823
150.663,639.432
151.248,709.806
151.833,669.437
152.418,751.762
153.003,655.956
153.588,528.0408
154.173,450.8712
154.758,431.063
155.343,475.375
155.928,562.64
156.513,647.757
157.098,572.409
157.683,532.578
158.268,523.673
158.853,590.142
159.438,676.724
160.023,682.6908
160.608,613.932
161.193,627
161.778,543.43
162.363,477.9545
162.948,436.242
163.533,438.473
164.118,411.77
164.703,432.596
165.288,441.191
165.873,433.009
166.458,449.827
167.043,469.308
167.628,454.097
168.213,470.677
168.798,546.077
169.383,527.054
169.968,491.764
170.553,492.753
171.138,475.778
171.723,455.987
172.308,504.815
172.893,536.791
173.478,576.9458
174.063,601.794
174.648,639.79
175.233,672.122
175.818,709.338
176.403,693.558
176.988,699.181
177.573,707.846
178.158,693.8858
178.653,691.298

File: 00-065-0318 (PD3).csv
9.945,1161
10.285,1118
10.625,1090
10.965,1052
11.305,1018
11.645,1003
11.985,975
12.325,938
12.665,936
13.005,1039
13.345,921
13.685,860
14.025,834
14.365,804
14.705,788
15.045,770
15.385,756
15.725,739
16.065,725
16.405,699
16.745,686
17.085,669
17.425,655
17.765,643
18.105,626
18.445,610
18.785,603
19.125,597
19.465,608
19.805,1154
20.145,578
20.485,545
20.825,536
21.165,521
21.505,511
21.845,507
22.185,497
22.525,495
22.865,497
23.205,544
23.545,502
23.885,530
24.225,894
24.565,479
24.905,488
25.245,450
25.585,451
25.925,500
26.265,645
26.605,2110
26.945,1164
27.285,435
27.625,429
27.965,424
28.305,445
28.645,428
28.985,429
29.325,418
29.665,501
30.005,536
30.345,836
30.685,14494
31.025,1241
31.365,543
31.705,466
32.045,435
32.385,417
32.725,586
33.065,8011
33.405,890
33.745,1698
34.085,368
34.425,336
34.765,330
35.105,334
35.445,379
35.785,549
36.125,307
36.465,281
36.805,277
37.145,272
37.485,278
37.825,278
38.165,266
38.505,270
38.845,306
39.185,291
39.525,438
39.865,426
40.205,2403
40.545,552
40.885,967
41.225,408
41.565,310
41.905,296
42.245,346
42.585,596
42.925,1782
43.265,340
43.605,270
43.945,254
44.285,254
44.625,275
44.965,254
45.305,245
45.645,248
45.985,252
46.325,274
46.665,398
47.005,945
47.345,4278
47.685,1419
48.025,622
48.365,336
48.705,382
49.045,278
49.385,259
49.725,217
50.065,222
50.405,222
50.745,216
51.085,211
51.425,220
51.765,317
52.105,233
52.445,270
52.785,723
53.125,1323
53.465,659
53.805,505
54.145,276
54.485,451
54.825,324
55.165,1506
55.505,401
55.845,297
56.185,233
56.525,229
56.865,231
57.205,420
57.545,2206
57.885,429
58.225,226
58.565,208
58.905,289
59.245,369
59.585,216
59.925,403
60.265,330
60.605,215
60.945,176
61.285,170
61.625,181
61.965,233
62.305,202
62.645,174
62.985,176
63.325,203
63.665,650
64.005,754
64.345,477
64.685,252
65.025,295
65.365,347
65.705,175
66.045,163
66.385,155
66.725,173
67.065,322
67.405,261
67.745,168
68.085,158
68.425,179
68.765,434
69.105,793
69.445,485
69.785,334
70.125,195
70.465,154
70.805,153
71.145,148
71.485,146
71.825,164
72.165,181
72.505,147
72.845,163
73.185,151
73.525,172
73.865,379
74.205,356
74.545,300
74.885,400
75.225,325
75.565,394
75.905,213
76.245,169
76.585,163
76.925,161
77.265,206
77.605,445
77.945,223
78.285,179
78.625,319
78.965,652
79.305,449
79.645,419
79.985,300
80.325,201
80.665,160
81.005,152
81.345,188
81.685,220
82.025,186
82.365,235
82.705,426
83.045,536
83.385,365
83.725,210
84.065,169
84.405,166
84.745,330
85.085,307
85.425,155
85.765,158
86.105,265
86.445,234
86.785,157
87.125,161
87.465,187
87.805,206
88.145,327
88.485,318
88.825,234
89.165,167
89.505,147
89.845,144
90.185,139
90.525,137
90.865,153
91.205,187
91.545,190
91.885,169
92.225,337
92.565,415
92.905,271
93.245,310
93.585,330
93.925,237
94.265,257
94.605,189
94.945,146
95.285,140
95.625,166
95.965,428
96.305,384
96.645,208
96.985,156
97.325,140
97.665,135
98.005,137
98.345,164
98.685,152
99.025,128
99.365,128
99.705,138
100.045,180
100.385,180
100.725,219
101.065,331
101.405,337
101.745,224
102.085,186
102.425,164
102.765,190
103.105,200
103.445,158
103.785,127
104.125,127
104.465,139
104.805,172
105.145,180
105.485,210
105.825,202
106.165,208
106.505,267
106.845,306
107.185,281
107.525,213
107.865,168
108.205,143
108.545,144
108.885,141
109.225,152
109.565,182
109.871,197

File: 00-065-0380 (PD3).csv
4.005,2342
4.395,2315
4.785,2380
5.175,2366
5.565,2376
5.955,2390
6.345,2363
6.735,2315
7.125,2206
7.515,2244
7.905,2228
8.295,2140
8.685,2044
9.075,2060
9.465,1931
9.855,1963
10.245,1971
10.635,1869
11.025,1831
11.415,1771
11.805,1757
12.195,1776
12.585,1733
12.975,1732
13.365,1707
13.755,1766
14.145,1787
14.535,1776
14.925,1798
15.315,1710
15.705,1700
16.095,1672
16.485,1754
16.875,1628
17.265,1556
17.655,1547
18.045,1492
18.435,1489
18.825,1477
19.215,1472
19.605,1405
19.995,1498
20.385,1439
20.775,1446
21.165,1605
21.555,2757
21.945,1424
22.335,2184
22.725,1242
23.115,1174
23.505,1162
23.895,1107
24.285,1079
24.675,1010
25.065,964
25.455,946
25.845,976
26.235,929
26.625,897
27.015,870
27.405,939
27.795,937
28.185,903
28.575,881
28.965,832
29.355,802
29.745,799
30.135,784
30.525,1353
30.915,1581
31.305,9514
31.695,1332
32.085,802
32.475,756
32.865,731
33.255,701
33.645,762
34.035,722
34.425,690
34.815,713
35.205,873
35.595,2495
35.985,802
36.375,882
36.765,948
37.155,3620
37.545,2916
37.935,943
38.325,753
38.715,754
39.105,689
39.495,705
39.885,712
40.275,745
40.665,731
41.055,805
41.445,1052
41.835,3350
42.225,6231
42.615,8700
43.005,1308
43.395,1110
43.785,6094
44.175,10846
44.565,1195
44.955,817
45.345,859
45.735,5498
46.125,1153
46.515,620
46.905,669
47.295,681
47.685,689
48.075,3570
48.465,665
48.855,668
49.245,683
49.635,700
50.025,3351
50.415,597
50.805,527
51.195,606
51.585,456
51.975,404
52.365,402
52.755,417
53.145,415
53.535,388
53.925,362
54.315,398
54.705,431
55.095,382
55.485,381
55.875,360
56.265,410
56.655,391
57.045,403
57.435,370
57.825,730
58.215,388
58.605,402
58.995,666
59.385,1968
59.775,601
60.165,729
60.555,6260
60.945,1104
61.335,544
61.725,462
62.115,578
62.505,688
62.895,2001
63.285,807
63.675,970
64.065,3990
64.455,842
64.845,984
65.235,1176
65.625,1412
66.015,477
66.405,459
66.795,425
67.185,435
67.575,362
67.965,402
68.355,552
68.745,415
69.135,510
69.525,1381
69.915,2293
70.305,599
70.695,517
71.085,498
71.475,624
71.865,383
72.255,506
72.645,559
73.035,2434
73.425,766
73.815,420
74.205,421
74.595,438
74.985,826
75.375,2269
75.765,1404
76.155,456
76.545,433
76.935,511
77.325,462
77.715,689
78.105,586
78.495,519
78.885,503
79.275,906
79.665,4087
80.055,638
80.445,418
80.835,405
81.225,443
81.615,422
82.005,425
82.395,1388
82.785,1102
83.175,2812
83.565,3916
83.955,1092
84.345,547
84.735,543
85.125,411
85.515,386
85.905,473
86.295,1142
86.685,744
87.075,440
87.465,368
87.855,452
88.245,370
88.635,350
89.025,428
89.415,381
89.805,318
90.195,338
90.585,380
90.975,361
91.365,504
91.755,526
92.145,432
92.535,747
92.925,1577
93.315,512
93.705,413
94.095,400
94.485,403
94.875,433
95.265,489
95.655,529
96.045,659
96.435,568
96.825,1404
97.215,3022
97.605,660
97.995,513
98.385,425
98.775,704
99.165,392
99.555,430
99.945,466
100.335,335
100.725,310
101.115,298
101.505,338
101.895,360
102.285,710
102.675,413
103.065,344
103.455,312
103.845,309
104.235,350
104.625,381
105.015,1199
105.405,762
105.795,400
106.185,367
106.575,454
106.965,347
107.355,331
107.745,359
108.135,508
108.525,953
108.915,696
109.305,1075
109.695,501
110.085,403
110.475,377
110.865,382
111.255,389
111.645,359
112.035,464
112.425,603
112.815,766
113.205,754
113.595,1104
113.985,675
114.375,556
114.765,947
115.155,631
115.545,794
115.935,489
116.325,484
116.715,621
117.105,1165
117.495,655
117.885,682
118.275,1129
118.665,512
119.055,399
119.445,441
119.835,751
120.225,535
120.615,321

File: 00-065-0436 (PD3).csv
5,83
5.4,66
5.8,58
6.2,73
6.6,81
7,71
7.4,93
7.8,64
8.2,78
8.6,95
9,63
9.4,60
9.8,81
10.2,102
10.6,60
11,94
11.4,62
11.8,99
12.2,94
12.6,86
13,82
13.4,90
13.8,79
14.2,94
14.6,89
15,97
15.4,107
15.8,99
16.2,91
16.6,99
17,101
17.4,89
17.8,92
18.2,114
18.6,112
19,102
19.4,109
19.8,117
20.2,251
20.6,317
21,145
21.4,279
21.8,163
22.2,490
22.6,402
23,147
23.4,118
23.8,124
24.2,101
24.6,77
25,92
25.4,93
25.8,115
26.2,69
26.6,85
27,89
27.4,108
27.8,107
28.2,115
28.6,112
29,144
29.4,147
29.8,187
30.2,390
30.6,2330
31,943
31.4,1155
31.8,237
32.2,169
32.6,120
33,126
33.4,117
33.8,141
34.2,135
34.6,157
35,661
35.4,323
35.8,170
36.2,169
36.6,314
37,5218
37.4,468
37.8,167
38.2,146
38.6,127
39,118
39.4,118
39.8,122
40.2,145
40.6,186
41,286
41.4,1407
41.8,1653
42.2,3749
42.6,466
43,400
43.4,997
43.8,8185
44.2,570
44.6,283
45,250
45.4,433
45.8,2458
46.2,245
46.6,174
47,137
47.4,141
47.8,372
48.2,123
48.6,108
49,108
49.4,154
49.8,256
50.2,132
50.6,366
51,169
51.4,125
51.8,113
52.2,111
52.6,78
53,96
53.4,114
53.8,110
54.2,84
54.6,103
55,183
55.4,118
55.8,116
56.2,104
56.6,112
57,115
57.4,147
57.8,135
58.2,142
58.6,352
59,762
59.4,172
59.8,244
60.2,2128
60.6,280
61,159
61.4,148
61.8,156
62.2,464
62.6,258
63,240
63.4,1221
63.8,498
64.2,541
64.6,257
65,364
65.4,232
65.8,136
66.2,138
66.6,125
67,123
67.4,135
67.8,181
68.2,186
68.6,236
69,1842
69.4,269
69.8,146
70.2,134
70.6,123
71,129
71.4,157
71.8,147
72.2,194
72.6,1173
73,184
73.4,153
73.8,185
74.2,570
74.6,235
75,333
75.4,276
75.8,157
76.2,159
76.6,145
77,132
77.4,224
77.8,132
78.2,150
78.6,312
79,843
79.4,169
79.8,140
80.2,114
80.6,133
81,171
81.4,161
81.8,255
82.2,539
82.6,552
83,545
83.4,467
83.8,173
84.2,140
84.6,105
85,141
85.4,405
85.8,327
86.2,137
86.6,121
87,144
87.4,128
87.8,138
88.2,165
88.6,159
89,118
89.4,130
89.8,140
90.2,172
90.6,205
91,149
91.4,165
91.8,720
92.2,178
92.6,139
93,139
93.4,124
93.8,121
94.2,129
94.6,133
95,137
95.4,153
95.8,245
96.2,951
96.6,309
97,165
97.4,153
97.8,168
98.2,207
98.6,167
99,195
99.4,159
99.8,127
100.2,128
100.6,117
101,115
101.4,135
101.8,169
102.2,206
102.6,130
103,120
103.4,188
103.8,165
104.2,482
104.6,149
105,145
105.4,115
105.8,152
106.2,113
106.6,128
107,174
107.4,210
107.8,444
108.2,232
108.6,147
109,126
109.4,132
109.8,161
110.2,113
110.6,142
111,161
111.4,233
111.8,659
112.2,198
112.6,128
113,187
113.4,130
113.8,129
114.2,444
114.6,224
115,175
115.4,381
115.8,178
116.2,129
116.6,161
117,221
117.4,378
117.8,178
118.2,154
118.6,244
119,250
119.4,151
119.8,111
120,117

File: 00-065-0440 (PD3).csv
5,49
5.4,47
5.8,31
6.2,37
6.6,58
7,47
7.4,44
7.8,51
8.2,33
8.6,54
9,58
9.4,49
9.8,64
10.2,69
10.6,68
11,63
11.4,58
11.8,61
12.2,62
12.6,61
13,78
13.4,61
13.8,64
14.2,82
14.6,68
15,67
15.4,81
15.8,59
16.2,79
16.6,78
17,72
17.4,90
17.8,76
18.2,75
18.6,89
19,72
19.4,81
19.8,81
20.2,102
20.6,369
21,115
21.4,86
21.8,122
22.2,191
22.6,538
23,120
23.4,83
23.8,83
24.2,102
24.6,92
25,89
25.4,99
25.8,94
26.2,82
26.6,98
27,98
27.4,103
27.8,107
28.2,97
28.6,114
29,97
29.4,102
29.8,124
30.2,162
30.6,916
31,388
31.4,3820
31.8,274
32.2,135
32.6,111
33,117
33.4,107
33.8,112
34.2,98
34.6,110
35,125
35.4,365
35.8,253
36.2,144
36.6,137
37,215
37.4,3657
37.8,263
38.2,142
38.6,103
39,107
39.4,116
39.8,110
40.2,115
40.6,94
41,140
41.4,177
41.8,428
42.2,1378
42.6,3462
43,321
43.4,273
43.8,627
44.2,5628
44.6,344
45,207
45.4,207
45.8,1314
46.2,352
46.6,146
47,112
47.4,115
47.8,106
48.2,506
48.6,118
49,102
49.4,99
49.8,111
50.2,381
50.6,99
51,122
51.4,100
51.8,84
52.2,80
52.6,88
53,98
53.4,102
53.8,81
54.2,97
54.6,91
55,83
55.4,92
55.8,112
56.2,80
56.6,78
57,94
57.4,87
57.8,99
58.2,87
58.6,97
59,115
59.4,599
59.8,122
60.2,148
60.6,1114
61,414
61.4,123
61.8,89
62.2,92
62.6,104
63,632
63.4,136
63.8,293
64.2,751
64.6,154
65,243
65.4,210
65.8,222
66.2,93
66.6,80
67,90
67.4,97
67.8,80
68.2,96
68.6,124
69,99
69.4,112
69.8,983
70.2,179
70.6,93
71,75
71.4,75
71.8,92
72.2,68
72.6,88
73,130
73.4,768
73.8,114
74.2,71
74.6,90
75,125
75.4,608
75.8,259
76.2,82
76.6,71
77,94
77.4,67
77.8,81
78.2,108
78.6,81
79,89
79.4,89
79.8,605
80.2,153
80.6,88
81,74
81.4,87
81.8,90
82.2,110
82.6,660
83,151
83.4,537
83.8,652
84.2,195
84.6,95
85,93
85.4,86
85.8,83
86.2,93
86.6,277
87,96
87.4,90
87.8,92
88.2,109
88.6,76
89,92
89.4,106
89.8,83
90.2,79
90.6,46
91,73
91.4,88
91.8,211
92.2,100
92.6,111
93,554
93.4,111
93.8,83
94.2,92
94.6,78
95,87
95.4,58
95.8,95
96.2,103
96.6,90
97,194
97.4,1034
97.8,179
98.2,99
98.6,109
99,138
99.4,100
99.8,85
100.2,118
100.6,65
101,72
101.4,88
101.8,92
102.2,81
102.6,297
103,72
103.4,78
103.8,95
104.2,94
104.6,100
105,134
105.4,488
105.8,100
106.2,98
106.6,97
107,96
107.4,79
107.8,95
108.2,107
108.6,153
109,191
109.4,150
109.8,142
110.2,103
110.6,100
111,83
111.4,117
111.8,103
112.2,95
112.6,139
113,125
113.4,214
113.8,533
114.2,134
114.6,130
115,220
115.4,118
115.8,163
116.2,114
116.6,94
117,119
117.4,337
117.8,137
118.2,196
118.6,171
119,99
119.4,111
119.8,114
120,161

File: 00-065-0725 (PD3).csv
2,16867
2.24,10611
2.48,8258
2.72,7203
2.96,6591
3.2,5750
3.44,4757
3.68,3943
3.92,3295
4.16,2761
4.4,2420
4.64,2057
4.88,1807
5.12,1589
5.36,1441
5.6,1254
5.84,1093
6.08,956
6.32,836
6.56,765
6.8,657
7.04,640
7.28,592
7.52,560
7.76,477
8,452
8.24,424
8.48,407
8.72,358
8.96,345
9.2,359
9.44,304
9.68,294
9.92,278
10.16,225
10.4,232
10.64,250
10.88,237
11.12,231
11.36,238
11.6,229
11.84,210
12.08,208
12.32,234
12.56,214
12.8,210
13.04,193
13.28,213
13.52,207
13.76,207
14,198
14.24,191
14.48,195
14.72,215
14.96,194
15.2,199
15.44,205
15.68,189
15.92,185
16.16,181
16.4,187
16.64,207
16.88,206
17.12,202
17.36,215
17.6,213
17.84,213
18.08,182
18.32,218
18.56,223
18.8,225
19.04,206
19.28,208
19.52,230
19.76,207
20,257
20.24,221
20.48,237
20.72,245
20.96,257
21.2,246
21.44,241
21.68,244
21.92,267
22.16,229
22.4,248
22.64,232
22.88,226
23.12,246
23.36,247
23.6,257
23.84,266
24.08,257
24.32,248
24.56,271
24.8,256
25.04,248
25.28,238
25.52,230
25.76,241
26,251
26.24,253
26.48,251
26.72,275
26.96,286
27.2,256
27.44,314
27.68,283
27.92,310
28.16,302
28.4,357
28.64,370
28.88,329
29.12,396
29.36,426
29.6,476
29.84,502
30.08,621
30.32,782
30.56,901
30.8,1300
31.04,1817
31.28,2225
31.52,2607
31.76,2543
32,2456
32.24,2224
32.48,1829
32.72,1587
32.96,1372
33.2,1273
33.44,1410
33.68,1671
33.92,2091
34.16,2320
34.4,2464
34.64,2517
34.88,2428
35.12,2587
35.36,2916
35.6,3257
35.84,3651
36.08,3919
36.32,3695
36.56,3450
36.8,2979
37.04,2274
37.28,1664
37.52,1152
37.76,821
38,642
38.24,491
38.48,404
38.72,373
38.96,375
39.2,327
39.44,327
39.68,307
39.92,301
40.16,267
40.4,300
40.64,297
40.88,242
41.12,311
41.36,258
41.6,265
41.84,234
42.08,243
42.32,274
42.56,231
42.8,224
43.04,275
43.28,251
43.52,261
43.76,276
44,264
44.24,303
44.48,286
44.72,280
44.96,278
45.2,284
45.44,299
45.68,382
45.92,379
46.16,484
46.4,544
46.64,641
46.88,824
47.12,880
47.36,924
47.6,949
47.84,853
48.08,821
48.32,708
48.56,560
48.8,459
49.04,423
49.28,372
49.52,306
49.76,272
50,265
50.24,270
50.48,260
50.72,235
50.96,250
51.2,268
51.44,244
51.68,253
51.92,257
52.16,259
52.4,246
52.64,265
52.88,266
53.12,298
53.36,265
53.6,300
53.84,282
54.08,307
54.32,334
54.56,388
54.8,437
55.04,460
55.28,652
55.52,819
55.76,1041
56,1202
56.24,1430
56.48,1465
56.72,1462
56.96,1343
57.2,1195
57.44,950
57.68,802
57.92,646
58.16,503
58.4,399
58.64,346
58.88,331
59.12,321
59.36,327
59.6,321
59.84,349
60.08,317
60.32,319
60.56,376
60.8,390
61.04,425
61.28,484
61.52,626
61.76,715
62,952
62.24,1064
62.48,1156
62.72,1214
62.96,1238
63.2,1072
63.44,947
63.68,941
63.92,694
64.16,582
64.4,484
64.64,406
64.88,377
65.12,375
65.36,418
65.6,475
65.84,506
66.08,564
66.32,624
66.56,670
66.8,826
67.04,1003
67.28,1036
67.52,1185
67.76,1219
68,1330
68.24,1264
68.48,1223
68.72,1173
68.96,990
69.2,916
69.44,797
69.68,664
69.92,528
70,549

File: 00-065-0726 (PD3).csv
2,25480
2.24,23973
2.48,19532
2.72,13941
2.96,9858
3.2,7557
3.44,6042
3.68,5225
3.92,4646
4.16,4132
4.4,3702
4.64,3284
4.88,2799
5.12,2352
5.36,2039
5.6,1804
5.84,1543
6.08,1383
6.32,1259
6.56,1046
6.8,1007
7.04,919
7.28,826
7.52,730
7.76,728
8,648
8.24,584
8.48,536
8.72,516
8.96,450
9.2,468
9.44,453
9.68,434
9.92,399
10.16,368
10.4,376
10.64,344
10.88,357
11.12,307
11.36,333
11.6,298
11.84,305
12.08,325
12.32,284
12.56,283
12.8,285
13.04,286
13.28,299
13.52,302
13.76,280
14,243
14.24,276
14.48,261
14.72,257
14.96,265
15.2,256
15.44,263
15.68,267
15.92,270
16.16,285
16.4,264
16.64,285
16.88,278
17.12,281
17.36,264
17.6,291
17.84,271
18.08,312
18.32,292
18.56,298
18.8,300
19.04,266
19.28,283
19.52,332
19.76,327
20,339
20.24,347
20.48,356
20.72,381
20.96,308
21.2,342
21.44,349
21.68,337
21.92,339
22.16,326
22.4,345
22.64,356
22.88,358
23.12,359
23.36,342
23.6,353
23.84,383
24.08,352
24.32,375
24.56,359
24.8,335
25.04,357
25.28,364
25.52,386
25.76,448
26,391
26.24,391
26.48,474
26.72,441
26.96,433
27.2,446
27.44,473
27.68,488
27.92,504
28.16,489
28.4,525
28.64,571
28.88,587
29.12,601
29.36,633
29.6,759
29.84,804
30.08,1009
30.32,1249
30.56,1390
30.8,1537
31.04,1863
31.28,1940
31.52,2091
31.76,2126
32,2037
32.24,1932
32.48,1801
32.72,1611
32.96,1669
33.2,1606
33.44,1765
33.68,1926
33.92,2111
34.16,2303
34.4,2454
34.64,2483
34.88,2592
35.12,2603
35.36,2695
35.6,2821
35.84,2827
36.08,2860
36.32,2705
36.56,2527
36.8,2152
37.04,1795
37.28,1396
37.52,1178
37.76,1005
38,792
38.24,667
38.48,562
38.72,479
38.96,454
39.2,432
39.44,397
39.68,393
39.92,395
40.16,315
40.4,365
40.64,323
40.88,365
41.12,313
41.36,323
41.6,349
41.84,348
42.08,310
42.32,309
42.56,321
42.8,326
43.04,334
43.28,322
43.52,314
43.76,314
44,350
44.24,379
44.48,378
44.72,345
44.96,410
45.2,418
45.44,445
45.68,455
45.92,517
46.16,569
46.4,631
46.64,725
46.88,776
47.12,820
47.36,835
47.6,762
47.84,731
48.08,628
48.32,633
48.56,563
48.8,548
49.04,473
49.28,473
49.52,391
49.76,421
50,355
50.24,385
50.48,378
50.72,355
50.96,351
51.2,350
51.44,377
51.68,358
51.92,376
52.16,346
52.4,347
52.64,330
52.88,378
53.12,400
53.36,399
53.6,455
53.84,410
54.08,501
54.32,524
54.56,588
54.8,619
55.04,736
55.28,876
55.52,924
55.76,1043
56,1066
56.24,1119
56.48,1151
56.72,1145
56.96,1044
57.2,966
57.44,844
57.68,678
57.92,675
58.16,630
58.4,521
58.64,484
58.88,443
59.12,416
59.36,409
59.6,429
59.84,415
60.08,381
60.32,460
60.56,444
60.8,570
61.04,585
61.28,625
61.52,739
61.76,789
62,804
62.24,890
62.48,916
62.72,928
62.96,953
63.2,836
63.44,791
63.68,694
63.92,644
64.16,606
64.4,565
64.64,555
64.88,501
65.12,503
65.36,560
65.6,563
65.84,622
66.08,633
66.32,752
66.56,754
66.8,817
67.04,819
67.28,955
67.52,1041
67.76,923
68,1010
68.24,936
68.48,875
68.72,861
68.96,782
69.2,692
69.44,639
69.68,550
69.92,510
70,468