Folder: spectrumdavit/data/xrd_icdd_PDF

Note: README.md
## Checkpoint
The pre-trained SpectrumDavit model checkpoint is available on [Zenodo] [![DOI](https://zenodo.org/badge/DOI/10.5281/zenodo.17172997.svg)](https://doi.org/10.5281/zenodo.17172997)

## Data Download
The dataset used in this project is available on [Zenodo] [![DOI](https://zenodo.org/badge/DOI/10.5281/zenodo.17173064.svg)](https://doi.org/10.5281/zenodo.17173064)

File: 00-049-0499 (PD3).csv
10,2290
10.28,2126
10.56,2138
10.84,2080
11.12,2018
11.4,1895
11.68,1864
11.96,2003
12.24,3948
12.52,1747
12.8,1682
13.08,3216
13.36,1513
13.64,1289
13.92,1263
14.2,1185
14.48,1062
14.76,995
15.04,1234
15.32,845
15.6,4059
15.88,743
16.16,801
16.44,840
16.72,795
17,819
17.28,733
17.56,592
17.84,620
18.12,611
18.4,628
18.68,1427
18.96,1834
19.24,572
19.52,530
19.8,549
20.08,808
20.36,1293
20.64,4625
20.92,1082
21.2,1252
21.48,882
21.76,623
22.04,602
22.32,1097
22.6,859
22.88,2050
23.16,2202
23.44,509
23.72,477
24,485
24.28,515
24.56,764
24.84,1295
25.12,497
25.4,510
25.68,450
25.96,1431
26.24,464
26.52,1231
26.8,452
27.08,409
27.36,406
27.64,475
27.92,399
28.2,699
28.48,620
28.76,5051
29.04,9416
29.32,1137
29.6,3116
29.88,2345
30.16,6531
30.44,34936
30.72,4772
31,815
31.28,5762
31.56,2558
31.84,531
32.12,1684
32.4,938
32.68,473
32.96,357
33.24,566
33.52,3264
33.8,1634
34.08,3777
34.36,1009
34.64,2587
34.92,3618
35.2,1727
35.48,651
35.76,1747
36.04,5098
36.32,1267
36.6,549
36.88,350
37.16,538
37.44,3010
37.72,517
38,380
38.28,1764
38.56,1499
38.84,398
39.12,505
39.4,304
39.68,304
39.96,308
40.24,1001
40.52,843
40.8,459
41.08,635
41.36,832
41.64,607
41.92,731
42.2,1753
42.48,1189
42.76,2713
43.04,999
43.32,1107
43.6,1037
43.88,1340
44.16,2258
44.44,1189
44.72,570
45,553
45.28,615
45.56,883
45.84,2186
46.12,733
46.4,711
46.68,1146
46.96,2519
47.24,727
47.52,1160
47.8,518
48.08,2997
48.36,925
48.64,1477
48.92,386
49.2,851
49.48,575
49.76,679
50.04,623
50.32,2634
50.6,1095
50.88,959
51.16,380
51.44,913
51.72,1499
52,820
52.28,624
52.56,846
52.84,847
53.12,1228
53.4,1642
53.68,873
53.96,1501
54.24,1145
54.52,813
54.8,705
55.08,662
55.36,474
55.64,358
55.92,917
56.2,693
56.48,415
56.76,793
57.04,658
57.32,567
57.6,2402
57.88,877
58.16,617
58.44,1927
58.72,2223
59,1158
59.28,1511
59.56,3546
59.84,1361
60.12,771
60.4,797
60.68,723
60.96,1933
61.24,2289
61.52,1048
61.8,488
62.08,460
62.36,1329
62.64,1841
62.92,1341
63.2,1341
63.48,1340
63.76,2777
64.04,816
64.32,573
64.6,798
64.88,2252
65.16,1924
65.44,989
65.72,1302
66,1131
66.28,1133
66.56,1123
66.84,678
67.12,667
67.4,523
67.68,819
67.96,467
68.24,739
68.52,1061
68.8,1428
69.08,1227
69.36,535
69.64,412
69.92,453
70.2,636
70.48,861
70.76,467
71.04,606
71.32,576
71.6,715
71.88,1624
72.16,933
72.44,744
72.72,1164
73,1184
73.28,809
73.56,410
73.84,577
74.12,692
74.4,608
74.68,457
74.96,434
75.24,477
75.52,428
75.8,469
76.08,575
76.36,477
76.64,313
76.92,395
77.2,809
77.48,554
77.76,654
78.04,493
78.32,324
78.6,256
78.88,352
79.16,376
79.44,431
79.72,714
80,510
80.28,443
80.56,414
80.84,289
81.12,551
81.4,522
81.68,360
81.96,351
82.24,413
82.52,367
82.8,323
83.08,237
83.36,305
83.64,358
83.92,482
84.2,465
84.48,370
84.76,341
85.04,378
85.32,527
85.6,453
85.88,420
86.16,842
86.44,593
86.72,430
87,635
87.28,724
87.56,597
87.84,356
88.12,389
88.4,384
88.68,497
88.96,527
89.24,716
89.52,664
89.8,438
90,415

File: 00-049-1085 (PD3).csv
10,5995
10.34,5940
10.68,5830
11.02,5827
11.36,5865
11.7,7748
12.04,7538
12.38,5634
12.72,5482
13.06,5568
13.4,5523
13.74,5527
14.08,5673
14.42,5510
14.76,5432
15.1,6012
15.44,5504
15.78,5426
16.12,5414
16.46,5346
16.8,5372
17.14,5195
17.48,5405
17.82,5254
18.16,5665
18.5,5289
18.84,5876
19.18,5026
19.52,4924
19.86,5015
20.2,4850
20.54,4978
20.88,4741
21.22,4789
21.56,4778
21.9,8533
22.24,5552
22.58,4754
22.92,4629
23.26,4597
23.6,4537
23.94,4780
24.28,4422
24.62,5130
24.96,4240
25.3,4268
25.64,4211
25.98,4936
26.32,4094
26.66,4157
27,3908
27.34,5221
27.68,4146
28.02,3869
28.36,4061
28.7,4199
29.04,3833
29.38,3845
29.72,3712
30.06,4346
30.4,16358
30.74,4629
31.08,4519
31.42,3834
31.76,12902
32.1,3628
32.44,4924
32.78,3770
33.12,3548
33.46,3639
33.8,3544
34.14,3895
34.48,3698
34.82,3845
35.16,3464
35.5,3533
35.84,3343
36.18,3428
36.52,3332
36.86,3407
37.2,4263
37.54,3918
37.88,3267
38.22,3168
38.56,3317
38.9,3339
39.24,4938
39.58,3301
39.92,4575
40.26,4453
40.6,3796
40.94,4047
41.28,3254
41.62,3280
41.96,3142
42.3,3063
42.64,3024
42.98,3322
43.32,3279
43.66,3168
44,3134
44.34,3031
44.68,4219
45.02,5237
45.36,3050
45.7,2996
46.04,3053
46.38,3060
46.72,2960
47.06,4266
47.4,2870
47.74,3008
48.08,3159
48.42,2912
48.76,4143
49.1,4422
49.44,3226
49.78,3463
50.12,3948
50.46,2952
50.8,2764
51.14,3727
51.48,2765
51.82,3029
52.16,3171
52.5,3009
52.84,3362
53.18,3600
53.52,2671
53.86,2764
54.2,3000
54.54,2658
54.88,3174
55.22,2723
55.56,2819
55.9,4874
56.24,2735
56.58,2801
56.92,3418
57.26,3419
57.6,2736
57.94,3382
58.28,2746
58.62,3094
58.96,3006
59.3,2662
59.64,3292
59.98,2719
60.32,2851
60.66,3144
61,2699
61.34,2707
61.68,2614
62.02,2628
62.36,3406
62.7,3433
63.04,2935
63.38,3260
63.72,2724
64.06,2763
64.4,2676
64.74,3071
65.08,2607
65.42,2632
65.76,2688
66.1,2700
66.44,4249
66.78,2653
67.12,2756
67.46,2584
67.8,2970
68.14,2608
68.48,2684
68.82,2623
69.16,2668
69.5,2693
69.84,2699
70.18,2525
70.52,2736
70.86,2944
71.2,2655
71.54,2700
71.88,3575
72.22,3036
72.56,3066
72.9,3101
73.24,2653
73.58,2629
73.92,3243
74.26,2526
74.6,2596
74.94,3377
75.28,2703
75.62,3024
75.96,2539
76.3,2563
76.64,2483
76.98,2563
77.32,2857
77.66,2586
78,2607
78.34,2713
78.68,3081
79.02,2826
79.36,2768
79.7,2951
80.04,2783
80.38,2896
80.72,2901
81.06,2735
81.4,2726
81.74,2680
82.08,2784
82.42,2632
82.76,2738
83.1,2672
83.44,2740
83.78,2860
84.12,3132
84.46,2787
84.8,2789
85.14,2773
85.48,2754
85.82,3119
86.16,2814
86.5,2672
86.84,2996
87.18,2808
87.52,2805
87.86,2613
88.2,2700
88.54,2860
88.88,2645
89.22,3181
89.56,2907
89.9,2703
90.24,3364
90.58,3072
90.92,2841
91.26,3049
91.6,2651
91.94,2773
92.28,3270
92.62,2712
92.96,2672
93.3,3005
93.64,2631
93.98,2665
94.32,2839
94.66,2963
95,2651
95.34,2615
95.68,2817
96.02,3000
96.36,2756
96.7,2841
97.04,2704
97.38,2832
97.72,2841
98.06,2892
98.4,2915
98.74,2855
99.08,2931
99.42,2748
99.76,2824
100.1,3020
100.44,2760
100.78,2775
101.12,2887
101.46,2758
101.8,2737
102.14,2735
102.48,3058
102.82,2899
103.16,2920
103.5,2747
103.84,2788
104.18,2854
104.52,2758
104.86,2992
105.2,2782
105.54,3062
105.88,2939
106.22,2866
106.56,2867
106.9,2838
107.24,2938
107.58,2745
107.92,2877
108.26,2944
108.6,2878
108.94,3117
109.28,2867
109.62,2898
109.96,3069
109.99,3009

File: 00-050-0218 (PD3).csv
8,6969
8.34,6867
8.68,6957
9.02,6929
9.36,6596
9.7,6561
10.04,6314
10.38,6262
10.72,6241
11.06,6213
11.4,7351
11.74,26708
12.08,6041
12.42,5866
12.76,5873
13.1,5843
13.44,5683
13.78,5509
14.12,5547
14.46,5719
14.8,6145
15.14,5572
15.48,5394
15.82,5424
16.16,5262
16.5,5333
16.84,5245
17.18,5296
17.52,8847
17.86,5296
18.2,5032
18.54,4773
18.88,4831
19.22,4789
19.56,4721
19.9,4697
20.24,4622
20.58,4558
20.92,5107
21.26,12628
21.6,4732
21.94,4410
22.28,4373
22.62,4301
22.96,4281
23.3,4355
23.64,4601
23.98,4113
24.32,4161
24.66,4171
25,3987
25.34,4594
25.68,4067
26.02,4069
26.36,4991
26.7,4090
27.04,3875
27.38,3809
27.72,3847
28.06,4842
28.4,3783
28.74,3727
29.08,3735
29.42,13805
29.76,10431
30.1,9887
30.44,3778
30.78,3633
31.12,24053
31.46,3680
31.8,3353
32.14,3297
32.48,4791
32.82,3226
33.16,3714
33.5,4314
33.84,4003
34.18,3088
34.52,3041
34.86,3067
35.2,2958
35.54,3063
35.88,3115
36.22,3105
36.56,3779
36.9,4421
37.24,3206
37.58,3691
37.92,2823
38.26,4089
38.6,3151
38.94,3323
39.28,2942
39.62,3503
39.96,11120
40.3,2918
40.64,4090
40.98,2813
41.32,5799
41.66,4873
42,2668
42.34,2638
42.68,3548
43.02,5448
43.36,2772
43.7,3278
44.04,2569
44.38,2617
44.72,2524
45.06,2666
45.4,2426
45.74,2843
46.08,2941
46.42,2653
46.76,2519
47.1,3072
47.44,2856
47.78,3934
48.12,2614
48.46,3589
48.8,2702
49.14,2383
49.48,2468
49.82,3600
50.16,2826
50.5,2305
50.84,2539
51.18,2444
51.52,3436
51.86,2703
52.2,2566
52.54,2431
52.88,2538
53.22,3908
53.56,2364
53.9,2573
54.24,6290
54.58,3781
54.92,3530
55.26,2412
55.6,2601
55.94,3032
56.28,2262
56.62,2319
56.96,2267
57.3,2440
57.64,2966
57.98,2436
58.32,3191
58.66,2175
59,2872
59.34,2222
59.68,2556
60.02,2671
60.36,3355
60.7,2232
61.04,3312
61.38,2983
61.72,2899
62.06,2625
62.4,2526
62.74,2703
63.08,2271
63.42,2420
63.76,2287
64.1,2260
64.44,2395
64.78,2412
65.12,2441
65.46,2082
65.8,2580
66.14,2114
66.48,2288
66.82,2063
67.16,2509
67.5,2300
67.84,2249
68.18,2122
68.52,2683
68.86,2242
69.2,2144
69.54,2406
69.88,3259
70.22,3759
70.56,2498
70.9,3032
71.24,2602
71.58,2248
71.92,2276
72.26,2381
72.6,2044
72.94,2118
73.28,2095
73.62,2026
73.96,1994
74.3,2081
74.64,2320
74.98,2191
75.32,2813
75.66,2123
76,2493
76.34,2506
76.68,2625
77.02,2180
77.36,2223
77.7,2118
78.04,2017
78.38,2857
78.72,2188
79.06,2243
79.4,2059
79.74,2305
80.08,2539
80.42,2129
80.76,2095
81.1,2290
81.44,2092
81.78,1939
82.12,2020
82.46,2191
82.8,2241
83.14,2319
83.48,2042
83.82,2508
84.16,1901
84.5,2037
84.84,2144
85.18,2216
85.52,2324
85.86,2146
86.2,2641
86.54,2176
86.88,2928
87.22,2076
87.56,2055
87.9,1982
88.24,1898
88.58,2099
88.92,2170
89.26,2000
89.6,2033
89.94,2067
90.28,2003
90.62,2166
90.96,2170
91.3,1915
91.64,1932
91.98,2026
92.32,1868
92.66,2089
93,2037
93.34,1902
93.68,2079
94.02,2555
94.36,2157
94.7,1996
95.04,2184
95.38,1958
95.72,2050
96.06,2037
96.4,2020
96.74,2352
97.08,1973
97.42,1990
97.76,2091
98.1,2261
98.44,1971
98.78,1811
99.12,1989
99.46,2072
99.8,2140
100.14,2185
100.48,2041
100.82,2005
101.16,1952
101.5,2054
101.84,2158
102.18,2049
102.52,1905
102.86,2210
103.2,2205
103.54,2056
103.88,2071
104.22,2217
104.56,1993
104.9,2004
105.24,2065
105.58,2244
105.92,1973
106.26,2032
106.6,2064
106.94,2134
107.28,1987
107.62,2057
107.96,2036
108.3,2145
108.64,2054
108.98,2163
109.32,2111
109.66,2093
109.98,2224

File: 00-050-1474 (PD3).csv
7,474
7.32,468
7.64,420
7.96,468
8.28,481
8.6,477
8.92,450
9.24,392
9.56,435
9.88,404
10.2,351
10.52,384
10.84,396
11.16,372
11.48,362
11.8,377
12.12,338
12.44,333
12.76,383
13.08,346
13.4,304
13.72,368
14.04,337
14.36,347
14.68,352
15,467
15.32,357
15.64,349
15.96,307
16.28,294
16.6,339
16.92,322
17.24,291
17.56,526
17.88,323
18.2,301
18.52,306
18.84,313
19.16,314
19.48,315
19.8,312
20.12,300
20.44,307
20.76,302
21.08,307
21.4,304
21.72,330
22.04,308
22.36,333
22.68,324
23,286
23.32,310
23.64,244
23.96,289
24.28,307
24.6,244
24.92,338
25.24,302
25.56,285
25.88,218
26.2,288
26.52,300
26.84,259
27.16,268
27.48,266
27.8,302
28.12,266
28.44,301
28.76,248
29.08,244
29.4,255
29.72,221
30.04,265
30.36,257
30.68,276
31,272
31.32,230
31.64,228
31.96,231
32.28,258
32.6,270
32.92,341
33.24,911
33.56,302
33.88,451
34.2,1924
34.52,275
34.84,331
35.16,337
35.48,10687
35.8,370
36.12,259
36.44,385
36.76,254
37.08,244
37.4,405
37.72,901
38.04,291
38.36,324
38.68,234
39,221
39.32,249
39.64,370
39.96,491
40.28,260
40.6,250
40.92,573
41.24,250
41.56,503
41.88,931
42.2,256
42.52,276
42.84,241
43.16,253
43.48,747
43.8,4243
44.12,385
44.44,264
44.76,485
45.08,254
45.4,249
45.72,1551
46.04,268
46.36,239
46.68,460
47,344
47.32,304
47.64,568
47.96,228
48.28,203
48.6,213
48.92,266
49.24,393
49.56,213
49.88,238
50.2,1274
50.52,264
50.84,205
51.16,291
51.48,322
51.8,260
52.12,205
52.44,206
52.76,219
53.08,188
53.4,195
53.72,237
54.04,264
54.36,185
54.68,241
55,197
55.32,212
55.64,226
55.96,692
56.28,301
56.6,180
56.92,220
57.24,246
57.56,317
57.88,205
58.2,203
58.52,227
58.84,233
59.16,280
59.48,321
59.8,208
60.12,234
60.44,324
60.76,454
61.08,238
61.4,195
61.72,219
62.04,236
62.36,307
62.68,216
63,379
63.32,234
63.64,227
63.96,346
64.28,384
64.6,259
64.92,209
65.24,279
65.56,263
65.88,204
66.2,228
66.52,568
66.84,237
67.16,207
67.48,247
67.8,319
68.12,200
68.44,267
68.76,691
69.08,270
69.4,264
69.72,217
70.04,282
70.36,237
70.68,228
71,256
71.32,183
71.64,186
71.96,192
72.28,180
72.6,189
72.92,269
73.24,195
73.56,273
73.88,285
74.2,308
74.52,226
74.84,329
75.16,653
75.48,305
75.8,231
76.12,203
76.44,240
76.76,285
77.08,193
77.4,191
77.72,253
78.04,206
78.36,185
78.68,180
79,303
79.32,286
79.64,296
79.96,266
80.28,270
80.6,214
80.92,236
81.24,244
81.56,257
81.88,308
82.2,249
82.52,237
82.84,195
83.16,189
83.48,193
83.8,192
84.12,206
84.44,200
84.76,261
85.08,243
85.4,225
85.72,214
86.04,203
86.36,216
86.68,256
87,223
87.32,334
87.64,211
87.96,168
88.28,183
88.6,207
88.92,244
89.24,215
89.56,237
89.88,251
90.2,211
90.52,240
90.84,215
91.16,268
91.48,301
91.8,252
92.12,235
92.44,200
92.76,185
93.08,219
93.4,193
93.72,249
94.04,199
94.36,215
94.68,213
95,199
95.32,247
95.64,180
95.96,209
96.28,284
96.6,356
96.92,258
97.24,198
97.56,240
97.88,260
98.2,208
98.52,181
98.84,179
99.16,189
99.48,184
99.8,240
100,206

File: 00-051-0097 (PD3).csv
8,6753
8.28,6577
8.56,6550
8.84,6370
9.12,6630
9.4,6495
9.68,6170
9.96,5999
10.24,5964
10.52,5861
10.8,5763
11.08,5797
11.36,5904
11.64,7008
11.92,16410
12.2,5967
12.48,5398
12.76,5525
13.04,5358
13.32,5347
13.6,5433
13.88,5362
14.16,5242
14.44,5114
14.72,5189
15,5655
15.28,5495
15.56,4907
15.84,4870
16.12,4836
16.4,4821
16.68,4819
16.96,4636
17.24,4678
17.52,4684
17.8,4576
18.08,4694
18.36,8682
18.64,6709
18.92,4366
19.2,4415
19.48,4331
19.76,4368
20.04,4361
20.32,4153
20.6,4167
20.88,4112
21.16,4142
21.44,4176
21.72,6107
22,15310
22.28,5706
22.56,3885
22.84,3729
23.12,3670
23.4,3561
23.68,3568
23.96,3714
24.24,3565
24.52,4194
24.8,3349
25.08,3361
25.36,3272
25.64,3424
25.92,3556
26.2,3144
26.48,3027
26.76,3068
27.04,3632
27.32,4914
27.6,3450
27.88,2982
28.16,3168
28.44,2981
28.72,3594
29,2894
29.28,2868
29.56,2972
29.84,2996
30.12,14320
30.4,16251
30.68,6826
30.96,3404
31.24,2944
31.52,3352
31.8,12988
32.08,3595
32.36,19283
32.64,3460
32.92,2639
33.2,2559
33.48,2586
33.76,2350
34.04,3637
34.32,2876
34.6,3099
34.88,2702
35.16,2385
35.44,2631
35.72,2319
36,2332
36.28,2314
36.56,2190
36.84,3249
37.12,3195
37.4,2957
37.68,2713
37.96,2235
38.24,2155
38.52,2222
38.8,2251
39.08,3557
39.36,2762
39.64,3607
39.92,2331
40.2,2884
40.48,2524
40.76,3195
41.04,2960
41.32,5385
41.6,2633
41.88,2212
42.16,2008
42.44,2100
42.72,4246
43,3017
43.28,2730
43.56,2194
43.84,2398
44.12,2119
44.4,6187
44.68,6018
44.96,3365
45.24,2159
45.52,2783
45.8,2100
46.08,2096
46.36,2011
46.64,2347
46.92,2276
47.2,2041
47.48,1975
47.76,2658
48.04,2010
48.32,2334
48.6,2295
48.88,4070
49.16,3271
49.44,5285
49.72,3242
50,2738
50.28,2064
50.56,1964
50.84,1961
51.12,2715
51.4,2017
51.68,2144
51.96,2268
52.24,2329
52.52,3541
52.8,2913
53.08,2725
53.36,2003
53.64,1987
53.92,2440
54.2,1957
54.48,2142
54.76,1955
55.04,2213
55.32,2255
55.6,3610
55.88,2543
56.16,2283
56.44,2364
56.72,2091
57,3506
57.28,2176
57.56,2497
57.84,2276
58.12,2082
58.4,2546
58.68,2081
58.96,1922
59.24,1916
59.52,2418
59.8,2431
60.08,3322
60.36,2213
60.64,2122
60.92,2012
61.2,1850
61.48,1814
61.76,2620
62.04,2130
62.32,2286
62.6,2801
62.88,2480
63.16,2478
63.44,2017
63.72,1865
64,2043
64.28,2441
64.56,2252
64.84,1904
65.12,1994
65.4,1855
65.68,2366
65.96,1940
66.24,2313
66.52,2158
66.8,2017
67.08,1837
67.36,2159
67.64,2635
67.92,1927
68.2,2094
68.48,1917
68.76,1959
69.04,2045
69.32,1952
69.6,2021
69.88,1982
70.16,2505
70.44,2199
70.72,2057
71,2163
71.28,2382
71.56,2849
71.84,2555
72.12,2576
72.4,2610
72.68,2097
72.96,1940
73.24,2562
73.52,2127
73.8,1886
74.08,2093
74.36,2280
74.64,3103
74.92,2438
75.2,2664
75.48,1950
75.76,1761
76.04,1787
76.32,1898
76.6,2185
76.88,2013
77.16,1863
77.44,1915
77.72,1958
78,2381
78.28,2076
78.56,2320
78.84,2413
79.12,2162
79.4,2592
79.68,2303
79.96,2414
80.24,2250
80.52,2037
80.8,2152
81.08,2140
81.36,2003
81.64,1976
81.92,1937
82.2,1907
82.48,1959
82.76,2181
83.04,1909
83.32,2162
83.6,2257
83.88,2006
84.16,2202
84.44,2065
84.72,1894
85,2508
85.28,2219
85.56,1982
85.84,2117
86.12,2032
86.4,1950
86.68,1963
86.96,2046
87.24,2090
87.52,2008
87.8,1904
88.08,2037
88.36,2438
88.64,2206
88.92,2206
89.2,2304
89.48,2180
89.76,2589
89.96,2152

File: 00-051-0137 (PD3).csv
5,574
5.46,574
5.92,540
6.38,560
6.84,540
7.3,512
7.76,434
8.22,504
8.68,504
9.14,451
9.6,479
10.06,468
10.52,470
10.98,428
11.44,437
11.9,563
12.36,409
12.82,493
13.28,431
13.74,437
14.2,454
14.66,437
15.12,451
15.58,414
16.04,451
16.5,493
16.96,868
17.42,496
17.88,459
18.34,437
18.8,395
19.26,470
19.72,378
20.18,378
20.64,420
21.1,370
21.56,367
22.02,389
22.48,347
22.94,353
23.4,398
23.86,417
24.32,700
24.78,431
25.24,347
25.7,350
26.16,417
26.62,510
27.08,24606
27.54,493
28,372
28.46,412
28.92,448
29.38,680
29.84,6331
30.3,501
30.76,468
31.22,384
31.68,437
32.14,7902
32.6,395
33.06,308
33.52,353
33.98,316
34.44,2274
34.9,344
35.36,300
35.82,319
36.28,328
36.74,1442
37.2,297
37.66,274
38.12,280
38.58,260
39.04,255
39.5,266
39.96,258
40.42,297
40.88,339
41.34,302
41.8,260
42.26,392
42.72,1378
43.18,325
43.64,294
44.1,428
44.56,546
45.02,260
45.48,255
45.94,462
46.4,347
46.86,297
47.32,316
47.78,6614
48.24,487
48.7,263
49.16,283
49.62,717
50.08,260
50.54,255
51,386
51.46,297
51.92,263
52.38,246
52.84,423
53.3,193
53.76,244
54.22,610
54.68,235
55.14,224
55.6,269
56.06,389
56.52,249
56.98,510
57.44,5163
57.9,342
58.36,302
58.82,1991
59.28,308
59.74,241
60.2,944
60.66,235
61.12,218
61.58,521
62.04,272
62.5,199
62.96,451
63.42,400
63.88,199
64.34,235
64.8,207
65.26,199
65.72,748
66.18,378
66.64,204
67.1,244
67.56,196
68.02,202
68.48,496
68.94,283
69.4,207
69.86,759
70.32,258
70.78,230
71.24,966
71.7,274
72.16,224
72.62,364
73.08,288
73.54,297
74,1397
74.46,238
74.92,190
75.38,218
75.84,196
76.3,263
76.76,498
77.22,213
77.68,389
78.14,398
78.6,199
79.06,1240
79.52,258
79.98,227
80.44,218
80.9,221
81.36,339
81.82,1159
82.28,238
82.74,185
83.2,204
83.66,230
84.12,843
84.58,316
85.04,207
85.5,202
85.96,168
86.42,221
86.88,356
87.34,171
87.8,190
88.26,269
88.72,210
89.18,706
89.64,398
90.1,216
90.56,258
91.02,199
91.48,392
91.94,470
92.4,190
92.86,344
93.32,311
93.78,241
94.24,829
94.7,274
95.16,274
95.62,384
96.08,238
96.54,616
97,459
97.46,213
97.92,288
98.38,232
98.84,202
99.3,398
99.76,356
100.22,263
100.68,571
101.14,347
101.6,232
102.06,224
102.52,210
102.98,344
103.44,294
103.9,232
104.36,1294
104.82,672
105.28,241
105.74,196
106.2,190
106.66,196
107.12,465
107.58,227
108.04,221
108.5,330
108.96,235
109.42,274
109.88,246
110.34,204
110.8,224
111.26,300
111.72,249
112.18,426
112.64,546
113.1,302
113.56,227
114.02,218
114.48,224
114.94,258
115.4,207
115.86,241
116.32,389
116.78,344
117.24,269
117.7,507
118.16,400
118.62,241
119.08,213
119.54,227
120,255
120.46,792
120.92,966
121.38,571
121.84,305
122.3,336
122.76,314
123.22,286
123.68,669
124.14,521
124.6,316
125.06,286
125.52,286
125.98,252
126.44,272
126.9,230
127.36,260
127.82,224
128.28,230
128.74,238
129.2,272
129.66,529
130.12,591
130.58,451
131.04,344
131.5,381
131.96,389
132.42,322
132.88,356
133.34,344
133.8,316
134.26,314
134.72,370
135.18,378
135.64,333
136.1,308
136.56,330
137.02,403
137.48,445
137.94,356
138.4,283
138.86,414
139.32,308
139.78,302
140,336

File: 00-051-0143 (PD3).csv
5,627
5.46,541
5.92,531
6.38,554
6.84,621
7.3,594
7.76,523
8.22,605
8.68,526
9.14,600
9.6,610
10.06,635
10.52,710
10.98,713
11.44,669
11.9,1663
12.36,720
12.82,782
13.28,823
13.74,782
14.2,783
14.66,799
15.12,866
15.58,858
16.04,821
16.5,833
16.96,3438
17.42,860
17.88,827
18.34,882
18.8,820
19.26,845
19.72,853
20.18,883
20.64,906
21.1,817
21.56,799
22.02,787
22.48,892
22.94,797
23.4,791
23.86,1007
24.32,1005
24.78,812
25.24,832
25.7,845
26.16,850
26.62,1026
27.08,1841
27.54,944
28,867
28.46,882
28.92,964
29.38,1688
29.84,1358
30.3,925
30.76,859
31.22,964
31.68,914
32.14,1869
32.6,874
33.06,899
33.52,875
33.98,906
34.44,1103
34.9,912
35.36,861
35.82,847
36.28,1176
36.74,868
37.2,844
37.66,821
38.12,817
38.58,857
39.04,804
39.5,837
39.96,869
40.42,1828
40.88,895
41.34,868
41.8,897
42.26,6340
42.72,924
43.18,919
43.64,850
44.1,2812
44.56,917
45.02,888
45.48,909
45.94,2255
46.4,940
46.86,918
47.32,1063
47.78,1690
48.24,926
48.7,892
49.16,1033
49.62,915
50.08,881
50.54,866
51,1569
51.46,971
51.92,886
52.38,1200
52.84,899
53.3,855
53.76,805
54.22,1072
54.68,913
55.14,902
55.6,1387
56.06,921
56.52,974
56.98,5650
57.44,1024
57.9,991
58.36,2387
58.82,968
59.28,830
59.74,869
60.2,1012
60.66,906
61.12,978
61.58,1133
62.04,883
62.5,944
62.96,1249
63.42,922
63.88,939
64.34,913
64.8,861
65.26,985
65.72,1802
66.18,901
66.64,948
67.1,992
67.56,880
68.02,941
68.48,1134
68.94,934
69.4,1077
69.86,1100
70.32,888
70.78,1592
71.24,995
71.7,918
72.16,1081
72.62,866
73.08,944
73.54,2307
74,964
74.46,885
74.92,978
75.38,960
75.84,987
76.3,1231
76.76,933
77.22,1477
77.68,974
78.14,886
78.6,1861
79.06,956
79.52,920
79.98,964
80.44,947
80.9,1077
81.36,1589
81.82,946
82.28,889
82.74,937
83.2,996
83.66,1735
84.12,1009
84.58,946
85.04,925
85.5,892
85.96,1023
86.42,1078
86.88,926
87.34,1096
87.8,976
88.26,996
88.72,1191
89.18,921
89.64,962
90.1,1043
90.56,973
91.02,1105
91.48,1141
91.94,947
92.4,1047
92.86,930
93.32,947
93.78,1201
94.24,986
94.7,985
95.16,1084
95.62,972
96.08,1440
96.54,1117
97,965
97.46,996
97.92,975
98.38,1107
98.84,1094
99.3,1015
99.76,1284
100.22,1083
100.68,949
101.14,1001
101.6,974
102.06,939
102.52,1002
102.98,1035
103.44,1249
103.9,1382
104.36,1021
104.82,1003
105.28,978
105.74,962
106.2,1122
106.66,1022
107.12,946
107.58,1094
108.04,996
108.5,951
108.96,1028
109.42,1010
109.88,1052
110.34,1027
110.8,1048
111.26,1228
111.72,1224
112.18,1013
112.64,969
113.1,956
113.56,980
114.02,1009
114.48,1011
114.94,1049
115.4,1072
115.86,1057
116.32,986
116.78,1155
117.24,1133
117.7,1023
118.16,1068
118.62,1022
119.08,1123
119.54,1503
120,1526
120.46,1251
120.92,1091
121.38,1086
121.84,996
122.3,1091
122.76,1248
123.22,1236
123.68,1059
124.14,1064
124.6,1074
125.06,1074
125.52,1055
125.98,952
126.44,1020
126.9,1110
127.36,1105
127.82,989
128.28,1065
128.74,1419
129.2,1241
129.66,1134
130.12,1290
130.58,1178
131.04,1147
131.5,1032
131.96,1161
132.42,1127
132.88,1083
133.34,1130
133.8,1257
134.26,1127
134.72,1090
135.18,1190
135.64,1232
136.1,1226
136.56,1090
137.02,1105
137.48,1091
137.94,1214
138.4,1194
138.86,1486
139.32,1494
139.78,1458
140,1377

File: 00-051-0147 (PD3).csv
5,512
5.46,521
5.92,529
6.38,470
6.84,504
7.3,526
7.76,470
8.22,470
8.68,456
9.14,409
9.6,451
10.06,431
10.52,406
10.98,445
11.44,454
11.9,476
12.36,8781
12.82,473
13.28,445
13.74,400
14.2,442
14.66,378
15.12,409
15.58,417
16.04,412
16.5,493
16.96,465
17.42,986
17.88,440
18.34,437
18.8,406
19.26,437
19.72,428
20.18,409
20.64,378
21.1,409
21.56,510
22.02,400
22.48,400
22.94,386
23.4,398
23.86,378
24.32,448
24.78,5572
25.24,440
25.7,381
26.16,372
26.62,488
27.08,596
27.54,1358
28,1910
28.46,574
28.92,496
29.38,552
29.84,714
30.3,2164
30.76,1820
31.22,661
31.68,560
32.14,563
32.6,577
33.06,9940
33.52,501
33.98,470
34.44,445
34.9,501
35.36,5796
35.82,451
36.28,420
36.74,395
37.2,521
37.66,11043
38.12,507
38.58,384
39.04,378
39.5,378
39.96,319
40.42,358
40.88,392
41.34,378
41.8,1798
42.26,386
42.72,328
43.18,395
43.64,10637
44.1,473
44.56,372
45.02,375
45.48,1666
45.94,512
46.4,389
46.86,364
47.32,2621
47.78,504
48.24,420
48.7,546
49.16,14062
49.62,577
50.08,384
50.54,400
51,2288
51.46,414
51.92,370
52.38,773
52.84,526
53.3,361
53.76,308
54.22,549
54.68,339
55.14,325
55.6,370
56.06,442
56.52,325
56.98,381
57.44,832
57.9,378
58.36,470
58.82,3340
59.28,1042
59.74,515
60.2,622
60.66,1089
61.12,440
61.58,370
62.04,862
62.5,367
62.96,367
63.42,4306
63.88,456
64.34,350
64.8,1176
65.26,423
65.72,316
66.18,325
66.64,325
67.1,305
67.56,417
68.02,2386
68.48,358
68.94,291
69.4,384
69.86,316
70.32,339
70.78,860
71.24,350
71.7,370
72.16,1092
72.62,333
73.08,392
73.54,1380
74,347
74.46,353
74.92,963
75.38,305
75.84,529
76.3,1876
76.76,403
77.22,350
77.68,384
78.14,322
78.6,364
79.06,1103
79.52,344
79.98,440
80.44,658
80.9,339
81.36,812
81.82,991
82.28,330
82.74,283
83.2,330
83.66,325
84.12,2523
84.58,577
85.04,280
85.5,263
85.96,238
86.42,356
86.88,2117
87.34,381
87.8,260
88.26,269
88.72,274
89.18,288
89.64,454
90.1,266
90.56,291
91.02,428
91.48,291
91.94,619
92.4,946
92.86,288
93.32,423
93.78,381
94.24,280
94.7,848
95.16,588
95.62,297
96.08,801
96.54,350
97,333
97.46,1487
97.92,426
98.38,288
98.84,745
99.3,322
99.76,319
100.22,664
100.68,350
101.14,300
101.6,347
102.06,297
102.52,470
102.98,652
103.44,347
103.9,650
104.36,806
104.82,314
105.28,272
105.74,302
106.2,286
106.66,358
107.12,375
107.58,350
108.04,706
108.5,983
108.96,406
109.42,322
109.88,325
110.34,294
110.8,398
111.26,395
111.72,333
112.18,316
112.64,389
113.1,300
113.56,297
114.02,546
114.48,423
114.94,316
115.4,361
115.86,330
116.32,308
116.78,930
117.24,622
117.7,322
118.16,300
118.62,300
119.08,311
119.54,297
120,459
120.46,392
120.92,314
121.38,818
121.84,591
122.3,353
122.76,437
123.22,459
123.68,426
124.14,336
124.6,325
125.06,336
125.52,426
125.98,1714
126.44,1030
126.9,784
127.36,406
127.82,610
128.28,462
128.74,395
129.2,549
129.66,801
130.12,918
130.58,400
131.04,510
131.5,448
131.96,403
132.42,370
132.88,414
133.34,398
133.8,367
134.26,367
134.72,344
135.18,353
135.64,381
136.1,392
136.56,927
137.02,717
137.48,960
137.94,462
138.4,624
138.86,594
139.32,456
139.78,431
140,400